# Data format: "%int(ChipTimeUS),%float(CorrectedAccelX),%float(CorrectedAccelY),%float(CorrectedAccelZ),%float(RawAccelX),%float(RawAccelY),%float(RawAccelZ)"
831715796,-0.02254,1.00194,0.00414,-0.07813,1.01074,0.00098
831720632,-0.02566,0.99618,0.00911,-0.08105,1.00488,0.00586
831725480,-0.02726,1.01081,0.00236,-0.08301,1.01953,-0.00098
831730325,-0.02374,0.99509,0.00219,-0.07910,1.00391,-0.00098
831735172,-0.02043,1.00585,0.00605,-0.07617,1.01465,0.00293
831740008,-0.02154,1.00194,0.00508,-0.07715,1.01074,0.00195
831744990,-0.02131,1.00977,0.00609,-0.07715,1.01855,0.00293
831749817,-0.02150,1.00386,0.00215,-0.07715,1.01270,-0.00098
831754663,-0.02045,1.00580,0.00213,-0.07617,1.01465,-0.00098
831759495,-0.02550,1.00204,0.00815,-0.08105,1.01074,0.00488
831764342,-0.02021,1.01368,0.00705,-0.07617,1.02246,0.00391
831769175,-0.02147,1.00485,0.00314,-0.07715,1.01367,0.00000
831774007,-0.02240,1.00591,0.00905,-0.07813,1.01465,0.00586
831778853,-0.01863,0.99991,0.00302,-0.07422,1.00879,0.00000
831783687,-0.02183,0.99214,0.00309,-0.07715,1.00098,0.00000
831788323,-0.02370,0.99608,0.00317,-0.07910,1.00488,0.00000
831793151,-0.02259,0.99999,0.00413,-0.07813,1.00879,0.00098
831797992,-0.02028,1.01076,0.00802,-0.07617,1.01953,0.00488
831802837,-0.01955,1.00192,0.00600,-0.07520,1.01074,0.00293
831807683,-0.02157,1.00096,0.00508,-0.07715,1.00977,0.00195
831812526,-0.02163,0.99899,0.00410,-0.07715,1.00781,0.00098
831817362,-0.01879,0.99406,0.00496,-0.07422,1.00293,0.00195
831822199,-0.02247,1.00392,0.00610,-0.07813,1.01270,0.00293
831826832,-0.02257,1.00004,0.00903,-0.07813,1.00879,0.00586
831831667,-0.02068,0.99797,0.00112,-0.07617,1.00684,-0.00195
831836503,-0.01964,0.99896,0.00403,-0.07520,1.00781,0.00098
831841343,-0.02241,1.00681,0.00219,-0.07813,1.01563,-0.00098
831846180,-0.01876,0.99504,0.00497,-0.07422,1.00391,0.00195
831851016,-0.02157,1.00096,0.00508,-0.07715,1.00977,0.00195
831855857,-0.02168,0.99705,0.00507,-0.07715,1.00586,0.00195
831860683,-0.02139,1.00685,0.00706,-0.07715,1.01563,0.00391
831865315,-0.02262,0.99902,0.00511,-0.07813,1.00781,0.00195
831870156,-0.02424,1.01178,0.00619,-0.08008,1.02051,0.00293
831875003,-0.01855,1.00191,0.00695,-0.07422,1.01074,0.00391
831879839,-0.02257,1.00096,0.00315,-0.07813,1.00977,0.00000
831884675,-0.02049,1.00388,0.00506,-0.07617,1.01270,0.00195
831889510,-0.02050,1.00386,0.00310,-0.07617,1.01270,0.00000
831894337,-0.02563,0.99807,0.00324,-0.08105,1.00684,0.00000
831899160,-0.02244,1.00582,0.00121,-0.07813,1.01465,-0.00195
831904009,-0.02147,1.00394,0.00901,-0.07715,1.01270,0.00586
831908648,-0.02367,0.99707,0.00415,-0.07910,1.00586,0.00098
831913477,-0.01951,1.00383,0.00209,-0.07520,1.01270,-0.00098
831918318,-0.02356,1.00097,0.00319,-0.07910,1.00977,0.00000
831923160,-0.02087,0.99112,0.00110,-0.07617,1.00000,-0.00195
831927990,-0.02455,1.00101,0.00518,-0.08008,1.00977,0.00195
831932836,-0.02317,1.01468,0.00421,-0.07910,1.02344,0.00098
831937680,-0.02257,1.00005,0.01001,-0.07813,1.00879,0.00684
831942511,-0.02150,1.00387,0.00313,-0.07715,1.01270,0.00000
831947143,-0.02567,0.99523,0.01205,-0.08105,1.00391,0.00879
831951975,-0.02058,1.00093,0.00407,-0.07617,1.00977,0.00098
831956819,-0.02350,1.00294,0.00417,-0.07910,1.01172,0.00098
831961655,-0.02169,0.99704,0.00409,-0.07715,1.00586,0.00098
831966499,-0.02668,0.99522,0.00914,-0.08203,1.00391,0.00586
831971334,-0.02361,0.99904,0.00514,-0.07910,1.00781,0.00195
831976174,-0.02059,1.00091,0.00211,-0.07617,1.00977,-0.00098
831981012,-0.02239,1.00777,0.00024,-0.07813,1.01660,-0.00293
831985648,-0.02152,1.00291,0.00411,-0.07715,1.01172,0.00098
831990486,-0.01954,1.00194,0.00796,-0.07520,1.01074,0.00488
831995332,-0.01856,1.00190,0.00597,-0.07422,1.01074,0.00293
832000169,-0.02161,0.99996,0.00312,-0.07715,1.00879,0.00000
832005056,-0.02461,0.99904,0.00419,-0.08008,1.00781,0.00098
832009894,-0.02461,0.99904,0.00419,-0.08008,1.00781,0.00098
832014741,-0.02436,1.00785,0.00422,-0.08008,1.01660,0.00098
832019587,-0.02345,1.00489,0.00418,-0.07910,1.01367,0.00098
832024431,-0.01967,0.99799,0.00501,-0.07520,1.00684,0.00195
832029063,-0.02066,0.99802,0.00602,-0.07617,1.00684,0.00293
832033881,-0.02063,0.99900,0.00602,-0.07617,1.00781,0.00293
832038713,-0.02470,0.99610,0.00320,-0.08008,1.00488,0.00000
832043554,-0.02376,0.99320,0.00806,-0.07910,1.00195,0.00488
832048381,-0.02165,0.99804,0.00605,-0.07715,1.00684,0.00293
832053223,-0.02059,1.00091,0.00211,-0.07617,1.00977,-0.00098
832058062,-0.02659,0.99909,0.00523,-0.08203,1.00781,0.00195
832062895,-0.02755,1.00008,0.00527,-0.08301,1.00879,0.00195
832067533,-0.02347,1.00394,0.00613,-0.07910,1.01270,0.00293
832072354,-0.02255,1.00100,0.00707,-0.07813,1.00977,0.00391
832077194,-0.01958,1.00093,0.00502,-0.07520,1.00977,0.00195
832082029,-0.02351,1.00293,0.00319,-0.07910,1.01172,0.00000
832086876,-0.01877,0.99502,0.00301,-0.07422,1.00391,0.00000
832091712,-0.02343,1.00585,0.00222,-0.07910,1.01465,-0.00098
832096554,-0.02170,0.99608,0.00604,-0.07715,1.00488,0.00293
832101383,-0.02362,0.99993,-0.00270,-0.07910,1.00879,-0.00586
832106220,-0.02141,1.00681,0.00314,-0.07715,1.01563,0.00000
832110860,-0.02363,0.99808,0.00709,-0.07910,1.00684,0.00391
832115700,-0.01561,1.00086,0.00489,-0.07129,1.00977,0.00195
832120543,-0.02151,1.00292,0.00509,-0.07715,1.01172,0.00195
832125380,-0.02458,1.00002,0.00419,-0.08008,1.00879,0.00098
832130221,-0.02346,1.00487,0.00222,-0.07910,1.01367,-0.00098
832135061,-0.01835,1.00969,0.00306,-0.07422,1.01855,0.00000
832139892,-0.02573,0.99418,0.00518,-0.08105,1.00293,0.00195
832144729,-0.01775,0.99598,0.00298,-0.07324,1.00488,0.00000
832149356,-0.02336,1.00784,0.00517,-0.07910,1.01660,0.00195
832154197,-0.02150,1.00386,0.00215,-0.07715,1.01270,-0.00098
832159030,-0.01939,1.00685,0.00994,-0.07520,1.01563,0.00684
832163874,-0.01962,0.99994,0.00404,-0.07520,1.00879,0.00098
832168720,-0.02350,1.00204,0.01103,-0.07910,1.01074,0.00781
832173558,-0.02254,1.00193,0.00316,-0.07813,1.01074,0.00000
832178394,-0.02440,1.00592,0.00715,-0.08008,1.01465,0.00391
832183241,-0.02361,0.99905,0.00612,-0.07910,1.00781,0.00293
832187878,-0.02666,0.99617,0.00718,-0.08203,1.00488,0.00391
832192708,-0.02263,0.99899,0.00217,-0.07813,1.00781,-0.00098
832197549,-0.02474,0.99416,0.00515,-0.08008,1.00293,0.00195
832202388,-0.02339,1.00685,0.00418,-0.07910,1.01563,0.00098
832207227,-0.02336,1.00783,0.00419,-0.07910,1.01660,0.00098
832212072,-0.02139,1.00778,0.00217,-0.07715,1.01660,-0.00098
832216909,-0.02245,1.00489,0.00513,-0.07813,1.01367,0.00195
832221740,-0.02058,1.00094,0.00505,-0.07617,1.00977,0.00195
832226568,-0.02148,1.00483,0.00118,-0.07715,1.01367,-0.00195
832231206,-0.02054,1.00193,0.00603,-0.07617,1.01074,0.00293
832236035,-0.02138,1.00779,0.00315,-0.07715,1.01660,0.00000
832240872,-0.02554,1.00102,0.00423,-0.08105,1.00977,0.00098
832245706,-0.02339,1.00685,0.00418,-0.07910,1.01563,0.00098
832250543,-0.02253,1.00197,0.00610,-0.07813,1.01074,0.00293
832255375,-0.01964,0.99897,0.00501,-0.07520,1.00781,0.00195
832260211,-0.01836,1.00876,0.00697,-0.07422,1.01758,0.00391
832265051,-0.02546,1.00395,0.00424,-0.08105,1.01270,0.00098
832269681,-0.02462,0.99902,0.00223,-0.08008,1.00781,-0.00098
832274520,-0.02560,0.99907,0.00520,-0.08105,1.00781,0.00195
832279365,-0.02384,0.99120,0.00413,-0.07910,1.00000,0.00098
832284203,-0.01975,0.99506,0.00500,-0.07520,1.00391,0.00195
832289036,-0.02533,1.00883,0.00327,-0.08105,1.01758,0.00000
832293869,-0.01848,1.00482,0.00500,-0.07422,1.01367,0.00195
832298708,-0.01843,1.00676,0.00305,-0.07422,1.01563,0.00000
832303541,-0.02259,1.00000,0.00511,-0.07813,1.00879,0.00195
832308160,-0.02336,1.00783,0.00419,-0.07910,1.01660,0.00098
832312999,-0.02747,1.00209,0.01017,-0.08301,1.01074,0.00684
832317845,-0.02257,1.00097,0.00413,-0.07813,1.00977,0.00098
832322692,-0.02648,1.00299,0.00427,-0.08203,1.01172,0.00098
832327529,-0.02470,0.99609,0.00222,-0.08008,1.00488,-0.00098
832332368,-0.01862,0.99992,0.00400,-0.07422,1.00879,0.00098
832337209,-0.01941,1.00681,0.00602,-0.07520,1.01563,0.00293
832342042,-0.02060,0.99998,0.00603,-0.07617,1.00879,0.00293
832346883,-0.02569,0.99610,0.00225,-0.08105,1.00488,-0.00098
832351515,-0.02063,0.99899,0.00504,-0.07617,1.00781,0.00195
832356349,-0.02352,1.00290,0.00025,-0.07910,1.01172,-0.00293
832361198,-0.01960,1.00090,0.00208,-0.07520,1.00977,-0.00098
832366038,-0.02562,0.99809,0.00520,-0.08105,1.00684,0.00195
832370876,-0.02239,1.00778,0.00122,-0.07813,1.01660,-0.00195
832375719,-0.02159,0.99999,0.00606,-0.07715,1.00879,0.00293
832380560,-0.01538,1.00871,0.00688,-0.07129,1.01758,0.00391
832385403,-0.02479,0.99222,0.00613,-0.08008,1.00098,0.00293
832390037,-0.02552,1.00198,0.00325,-0.08105,1.01074,0.00000
832394876,-0.02743,1.00402,0.00822,-0.08301,1.01270,0.00488
832399710,-0.02652,1.00199,0.00230,-0.08203,1.01074,-0.00098
832404549,-0.01973,0.99603,0.00402,-0.07520,1.00488,0.00098
832409386,-0.02064,0.99898,0.00406,-0.07617,1.00781,0.00098
832414218,-0.02150,1.00294,0.00705,-0.07715,1.01172,0.00391
832419057,-0.02554,1.00103,0.00521,-0.08105,1.00977,0.00195
832423902,-0.02426,1.01080,0.00619,-0.08008,1.01953,0.00293
832428538,-0.02359,0.99999,0.00318,-0.07910,1.00879,0.00000
832433365,-0.01862,0.99992,0.00400,-0.07422,1.00879,0.00098
832438208,-0.02138,1.00779,0.00315,-0.07715,1.01660,0.00000
832443046,-0.02452,1.00199,0.00518,-0.08008,1.01074,0.00195
832447889,-0.02261,0.99903,0.00609,-0.07813,1.00781,0.00293
832452722,-0.02649,1.00297,0.00231,-0.08203,1.01172,-0.00098
832457571,-0.02346,1.00395,0.00711,-0.07910,1.01270,0.00391
832462409,-0.02234,1.00879,0.00416,-0.07813,1.01758,0.00098
832467249,-0.01633,1.01065,0.00398,-0.07227,1.01953,0.00098
832471888,-0.02449,1.00298,0.00616,-0.08008,1.01172,0.00293
832476726,-0.02233,1.00974,0.00122,-0.07813,1.01855,-0.00195
832481574,-0.01848,1.00482,0.00500,-0.07422,1.01367,0.00195
832486413,-0.02341,1.00682,0.00125,-0.07910,1.01563,-0.00195
832491255,-0.02267,0.99799,0.00020,-0.07813,1.00684,-0.00293
832496096,-0.02229,1.01074,0.00319,-0.07813,1.01953,0.00000
832500936,-0.02455,1.00101,0.00518,-0.08008,1.00977,0.00195
832505780,-0.02452,1.00199,0.00518,-0.08008,1.01074,0.00195
832510413,-0.02354,1.00194,0.00221,-0.07910,1.01074,-0.00098
832515255,-0.02439,1.00685,0.00226,-0.08008,1.01563,-0.00098
832520099,-0.02258,1.00094,0.00217,-0.07813,1.00977,-0.00098
832524946,-0.01962,0.99994,0.00404,-0.07520,1.00879,0.00098
832529785,-0.02445,1.00490,0.00323,-0.08008,1.01367,0.00000
832534616,-0.02155,1.00192,0.00313,-0.07715,1.01074,0.00000
832539451,-0.02777,0.99228,0.00720,-0.08301,1.00098,0.00391
832544284,-0.02244,1.00491,0.00709,-0.07813,1.01367,0.00391
832549128,-0.01969,0.99703,0.00598,-0.07520,1.00586,0.00293
832553762,-0.02130,1.00980,0.00805,-0.07715,1.01855,0.00488
832558588,-0.02557,1.00004,0.00422,-0.08105,1.00879,0.00098
832563413,-0.02165,0.99804,0.00605,-0.07715,1.00684,0.00293
832568241,-0.02462,0.99811,0.00811,-0.08008,1.00684,0.00488
832573052,-0.02413,1.01568,0.00523,-0.08008,1.02441,0.00195
832577874,-0.02165,0.99804,0.00605,-0.07715,1.00684,0.00293
832582686,-0.02375,0.99415,0.00512,-0.07910,1.00293,0.00195
832587502,-0.02242,1.00587,0.00513,-0.07813,1.01465,0.00195
832592134,-0.01642,1.00770,0.00299,-0.07227,1.01660,0.00000
832596956,-0.02861,0.99813,0.00431,-0.08398,1.00684,0.00098
832601796,-0.02516,1.01470,0.00329,-0.08105,1.02344,0.00000
832606633,-0.01933,1.00973,0.00505,-0.07520,1.01855,0.00195
832611473,-0.02346,1.00486,0.00124,-0.07910,1.01367,-0.00195
832616313,-0.02144,1.00583,0.00314,-0.07715,1.01465,0.00000
832621152,-0.02138,1.00780,0.00412,-0.07715,1.01660,0.00098
832625996,-0.02025,1.01267,0.00411,-0.07617,1.02148,0.00098
832630636,-0.02168,0.99705,0.00507,-0.07715,1.00586,0.00195
832635476,-0.02452,1.00198,0.00420,-0.08008,1.01074,0.00098
832640307,-0.02437,1.00691,0.00813,-0.08008,1.01563,0.00488
832645135,-0.02245,1.00490,0.00611,-0.07813,1.01367,0.00293
832649977,-0.01738,1.00871,0.00400,-0.07324,1.01758,0.00098
832654824,-0.02361,0.99904,0.00514,-0.07910,1.00781,0.00195
832659657,-0.02260,0.99998,0.00315,-0.07813,1.00879,0.00000
832664483,-0.02157,1.00096,0.00508,-0.07715,1.00977,0.00195
832669327,-0.02433,1.00882,0.00422,-0.08008,1.01758,0.00098
832673964,-0.02076,0.99412,0.00699,-0.07617,1.00293,0.00391
832678799,-0.02185,0.99025,0.00994,-0.07715,0.99902,0.00684
832683631,-0.02555,1.00100,0.00325,-0.08105,1.00977,0.00000
832688471,-0.01764,0.99990,0.00299,-0.07324,1.00879,0.00000
832693303,-0.01832,1.00977,0.00991,-0.07422,1.01855,0.00684
832698139,-0.02663,0.99808,0.00229,-0.08203,1.00684,-0.00098
832702972,-0.02764,0.99714,0.00428,-0.08301,1.00586,0.00098
832707811,-0.02258,1.00002,0.00707,-0.07813,1.00879,0.00391
832712446,-0.02360,0.99998,0.00220,-0.07910,1.00879,-0.00098
832717280,-0.02046,1.00488,0.00702,-0.07617,1.01367,0.00391
832722118,-0.02342,1.00586,0.00320,-0.07910,1.01465,0.00000
832726952,-0.01931,1.01071,0.00505,-0.07520,1.01953,0.00195
832731793,-0.02244,1.00492,0.00806,-0.07813,1.01367,0.00488
832736636,-0.02546,1.00395,0.00424,-0.08105,1.01270,0.00098
832741484,-0.02044,1.00491,0.00996,-0.07617,1.01367,0.00684
832746330,-0.01861,0.99995,0.00694,-0.07422,1.00879,0.00391
832750957,-0.02266,0.99801,0.00216,-0.07813,1.00684,-0.00098
832755799,-0.02175,0.99413,0.00702,-0.07715,1.00293,0.00391
832760632,-0.02353,1.00197,0.00515,-0.07910,1.01074,0.00195
832765466,-0.02148,1.00482,0.00020,-0.07715,1.01367,-0.00293
832770300,-0.02137,1.00874,0.00119,-0.07715,1.01758,-0.00195
832775133,-0.02179,0.99406,0.00016,-0.07715,1.00293,-0.00293
832779964,-0.02041,1.00773,-0.00081,-0.07617,1.01660,-0.00391
832784811,-0.01943,1.00676,0.00210,-0.07520,1.01563,-0.00098
832789655,-0.02152,1.00291,0.00411,-0.07715,1.01172,0.00098
832794286,-0.02271,0.99515,0.00901,-0.07813,1.00391,0.00586
832799130,-0.02439,1.00594,0.00911,-0.08008,1.01465,0.00586
832803969,-0.01869,0.99702,0.00693,-0.07422,1.00586,0.00391
832808805,-0.02149,1.00388,0.00411,-0.07715,1.01270,0.00098
832813647,-0.02172,0.99512,0.00800,-0.07715,1.00391,0.00488
832818484,-0.02575,0.99323,0.00812,-0.08105,1.00195,0.00488
832823320,-0.02045,1.00490,0.00898,-0.07617,1.01367,0.00586
832828153,-0.01849,1.00479,0.00206,-0.07422,1.01367,-0.00098
832832778,-0.02370,0.99701,-0.00173,-0.07910,1.00586,-0.00488
832837621,-0.02229,1.01074,0.00319,-0.07813,1.01953,0.00000
832842457,-0.02483,0.99122,0.00416,-0.08008,1.00000,0.00098
832847290,-0.02273,0.99511,0.00509,-0.07813,1.00391,0.00195
832852134,-0.02346,1.00486,0.00124,-0.07910,1.01367,-0.00195
832856974,-0.02147,1.00484,0.00216,-0.07715,1.01367,-0.00098
832861815,-0.02271,0.99608,0.00412,-0.07813,1.00488,0.00098
832866654,-0.02461,0.99904,0.00419,-0.08008,1.00781,0.00098
832871292,-0.01444,1.00674,0.00684,-0.07031,1.01563,0.00391
832876132,-0.02237,1.00691,0.01101,-0.07813,1.01563,0.00781
832880973,-0.02543,1.00493,0.00424,-0.08105,1.01367,0.00098
832885809,-0.02247,1.00393,0.00708,-0.07813,1.01270,0.00391
832890648,-0.02547,1.00393,0.00228,-0.08105,1.01270,-0.00098
832895493,-0.02545,1.00397,0.00620,-0.08105,1.01270,0.00293
832900328,-0.02750,1.00204,0.00527,-0.08301,1.01074,0.00195
832905174,-0.01946,1.00487,0.00797,-0.07520,1.01367,0.00488
832910021,-0.01560,1.00180,0.00098,-0.07129,1.01074,-0.00195
832914659,-0.02537,1.00689,0.00523,-0.08105,1.01563,0.00195
832919490,-0.01842,1.00679,0.00599,-0.07422,1.01563,0.00293
832924336,-0.02160,0.99998,0.00508,-0.07715,1.00879,0.00195
832929176,-0.02080,0.99312,0.00502,-0.07617,1.00195,0.00195
832934004,-0.02254,1.00194,0.00414,-0.07813,1.01074,0.00098
832938842,-0.01759,1.00092,0.00691,-0.07324,1.00977,0.00391
832943682,-0.02270,0.99609,0.00510,-0.07813,1.00488,0.00195
832948525,-0.02267,0.99706,0.00510,-0.07813,1.00586,0.00195
832953152,-0.02438,1.00780,0.00030,-0.08008,1.01660,-0.00293
832957994,-0.02553,1.00105,0.00717,-0.08105,1.00977,0.00391
832962832,-0.02344,1.00492,0.00614,-0.07910,1.01367,0.00293
832967669,-0.02263,0.99900,0.00315,-0.07813,1.00781,0.00000
832972509,-0.02033,1.00974,0.00410,-0.07617,1.01855,0.00098
832977346,-0.02470,0.99609,0.00222,-0.08008,1.00488,-0.00098
832982185,-0.02061,0.99996,0.00407,-0.07617,1.00879,0.00098
832987025,-0.02541,1.00498,0.00914,-0.08105,1.01367,0.00586
832991862,-0.02567,0.99616,0.00715,-0.08105,1.00488,0.00391
832996491,-0.02173,0.99510,0.00604,-0.07715,1.00391,0.00293
833001371,-0.02550,1.00204,0.00815,-0.08105,1.01074,0.00488
833006220,-0.02032,1.00977,0.00704,-0.07617,1.01855,0.00391
833011063,-0.02436,1.00785,0.00422,-0.08008,1.01660,0.00098
833015903,-0.01654,1.00378,0.00199,-0.07227,1.01270,-0.00098
833020739,-0.01956,1.00189,0.00404,-0.07520,1.01074,0.00098
833025581,-0.02355,1.00192,0.00025,-0.07910,1.01074,-0.00293
833030416,-0.02363,0.99899,0.00122,-0.07910,1.00781,-0.00195
833035052,-0.02549,1.00296,0.00325,-0.08105,1.01172,0.00000
833039881,-0.02343,1.00584,0.00124,-0.07910,1.01465,-0.00195
833044719,-0.02286,0.99115,0.00116,-0.07813,1.00000,-0.00195
833049555,-0.02445,1.00490,0.00323,-0.08008,1.01367,0.00000
833054393,-0.02257,1.00004,0.00903,-0.07813,1.00879,0.00586
833059237,-0.02244,1.00492,0.00806,-0.07813,1.01367,0.00488
833064079,-0.02145,1.00488,0.00607,-0.07715,1.01367,0.00293
833068922,-0.02070,0.99610,0.00895,-0.07617,1.00488,0.00586
833073548,-0.01965,0.99804,0.00893,-0.07520,1.00684,0.00586
833078387,-0.01883,0.99305,0.00202,-0.07422,1.00195,-0.00098
833083224,-0.02721,1.01183,0.00629,-0.08301,1.02051,0.00293
833088060,-0.02271,0.99608,0.00412,-0.07813,1.00488,0.00098
833092907,-0.02348,1.00392,0.00417,-0.07910,1.01270,0.00098
833097753,-0.02223,1.01271,0.00515,-0.07813,1.02148,0.00195
833102597,-0.02345,1.00488,0.00320,-0.07910,1.01367,0.00000
833107423,-0.02470,0.99610,0.00320,-0.08008,1.00488,0.00000
833112255,-0.02259,0.99999,0.00413,-0.07813,1.00879,0.00098
833116883,-0.02462,0.99811,0.00811,-0.08008,1.00684,0.00488
833121716,-0.02150,1.00387,0.00313,-0.07715,1.01270,0.00000
833126553,-0.01742,1.00679,0.00693,-0.07324,1.01563,0.00391
833131394,-0.02059,1.00092,0.00309,-0.07617,1.00977,0.00000
833136231,-0.02062,0.99993,0.00211,-0.07617,1.00879,-0.00098
833141067,-0.02355,1.00100,0.00612,-0.07910,1.00977,0.00293
833145912,-0.02247,1.00485,0.00121,-0.07813,1.01367,-0.00195
833150750,-0.02235,1.00878,0.00318,-0.07813,1.01758,0.00000
833155378,-0.02630,1.00981,0.00233,-0.08203,1.01855,-0.00098
833160218,-0.02657,1.00004,0.00328,-0.08203,1.00879,0.00000
833165049,-0.02135,1.00879,0.00511,-0.07715,1.01758,0.00195
833169888,-0.02425,1.01174,0.00227,-0.08008,1.02051,-0.00098
833174734,-0.02430,1.00981,0.00521,-0.08008,1.01855,0.00195
833179582,-0.02560,0.99906,0.00422,-0.08105,1.00781,0.00098
833184420,-0.02541,1.00588,0.00229,-0.08105,1.01465,-0.00098
833189264,-0.01761,1.00087,0.00300,-0.07324,1.00977,0.00000
833193897,-0.02066,0.99802,0.00602,-0.07617,1.00684,0.00293
833198738,-0.01476,0.99596,0.00484,-0.07031,1.00488,0.00195
833203581,-0.03229,1.00800,0.00643,-0.08789,1.01660,0.00293
833208423,-0.02181,0.99402,-0.00376,-0.07715,1.00293,-0.00684
833213260,-0.01969,0.99795,0.00109,-0.07520,1.00684,-0.00195
833218102,-0.02067,0.99706,0.00798,-0.07617,1.00586,0.00488
833222931,-0.02478,0.99316,0.00319,-0.08008,1.00195,0.00000
833227767,-0.02627,1.00988,0.00821,-0.08203,1.01855,0.00488
833232611,-0.01942,1.00588,0.01091,-0.07520,1.01465,0.00781
833237247,-0.02065,0.99894,0.00112,-0.07617,1.00781,-0.00195
833242078,-0.02252,1.00198,0.00708,-0.07813,1.01074,0.00391
833246922,-0.02459,1.00000,0.00223,-0.08008,1.00879,-0.00098
833251766,-0.02056,1.00189,0.00211,-0.07617,1.01074,-0.00098
833256607,-0.02332,1.00885,0.00811,-0.07910,1.01758,0.00488
833261445,-0.02456,1.00099,0.00322,-0.08008,1.00977,0.00000
833266280,-0.02378,0.99225,0.01099,-0.07910,1.00098,0.00781
833271118,-0.02447,1.00301,0.00910,-0.08008,1.01172,0.00586
833275757,-0.02570,0.99609,0.00127,-0.08105,1.00488,-0.00195
833280601,-0.02374,0.99509,0.00219,-0.07910,1.00391,-0.00098
833285441,-0.02158,1.00094,0.00312,-0.07715,1.00977,0.00000
833290276,-0.01842,1.00678,0.00501,-0.07422,1.01563,0.00195
833295108,-0.02451,1.00202,0.00812,-0.08008,1.01074,0.00488
833299940,-0.01868,0.99798,0.00498,-0.07422,1.00684,0.00195
833304778,-0.01749,1.00481,0.00497,-0.07324,1.01367,0.00195
833309615,-0.02166,0.99802,0.00409,-0.07715,1.00684,0.00098
833314244,-0.02238,1.00688,0.00807,-0.07813,1.01563,0.00488
833319088,-0.02056,1.00099,0.00897,-0.07617,1.00977,0.00586
833323933,-0.02154,1.00195,0.00606,-0.07715,1.01074,0.00293
833328784,-0.02154,1.00195,0.00606,-0.07715,1.01074,0.00293
833333625,-0.02161,0.99996,0.00312,-0.07715,1.00879,0.00000
833338462,-0.02368,0.99705,0.00219,-0.07910,1.00586,-0.00098
833343311,-0.02380,0.99221,0.00707,-0.07910,1.00098,0.00391
833348143,-0.01867,0.99800,0.00694,-0.07422,1.00684,0.00391
833352986,-0.02146,1.00486,0.00411,-0.07715,1.01367,0.00098
833357619,-0.02150,1.00387,0.00313,-0.07715,1.01270,0.00000
833362455,-0.01741,1.00773,0.00400,-0.07324,1.01660,0.00098
833367295,-0.01879,0.99405,0.00398,-0.07422,1.00293,0.00098
833372136,-0.01969,0.99703,0.00598,-0.07520,1.00586,0.00293
833376977,-0.02346,1.00395,0.00711,-0.07910,1.01270,0.00391
833381817,-0.02355,1.00100,0.00612,-0.07910,1.00977,0.00293
833386657,-0.01762,0.99994,0.00691,-0.07324,1.00879,0.00391
833391504,-0.02269,0.99702,0.00118,-0.07813,1.00586,-0.00195
833396141,-0.02156,1.00098,0.00704,-0.07715,1.00977,0.00391
833400975,-0.02349,1.00387,0.00026,-0.07910,1.01270,-0.00293
833405824,-0.02655,1.00009,0.00720,-0.08203,1.00879,0.00391
833410661,-0.02363,0.99807,0.00611,-0.07910,1.00684,0.00293
833415495,-0.02555,1.00099,0.00227,-0.08105,1.00977,-0.00098
833420338,-0.02547,1.00394,0.00326,-0.08105,1.01270,0.00000
833425172,-0.02551,1.00201,0.00619,-0.08105,1.01074,0.00293
833430006,-0.01874,0.99600,0.00301,-0.07422,1.00488,0.00000
833434843,-0.02254,1.00194,0.00414,-0.07813,1.01074,0.00098
833439480,-0.02077,0.99410,0.00503,-0.07617,1.00293,0.00195
833444322,-0.01763,0.99991,0.00397,-0.07324,1.00879,0.00098
833449162,-0.02549,1.00205,0.00913,-0.08105,1.01074,0.00586
833454003,-0.02649,1.00298,0.00329,-0.08203,1.01172,0.00000
833458836,-0.02365,0.99803,0.00220,-0.07910,1.00684,-0.00098
833463675,-0.01969,0.99703,0.00598,-0.07520,1.00586,0.00293
833468518,-0.01967,0.99799,0.00501,-0.07520,1.00684,0.00195
833473352,-0.02246,1.00394,0.00806,-0.07813,1.01270,0.00488
833477991,-0.02060,0.99998,0.00603,-0.07617,1.00879,0.00293
833482823,-0.02159,1.00000,0.00704,-0.07715,1.00879,0.00391
833487660,-0.02044,1.00582,0.00409,-0.07617,1.01465,0.00098
833492495,-0.02034,1.00973,0.00312,-0.07617,1.01855,0.00000
833497330,-0.02137,1.00874,0.00119,-0.07715,1.01758,-0.00195
833502162,-0.02140,1.00684,0.00608,-0.07715,1.01563,0.00293
833506998,-0.02366,0.99709,0.00611,-0.07910,1.00586,0.00293
833511837,-0.02535,1.00786,0.00425,-0.08105,1.01660,0.00098
833516473,-0.02234,1.00880,0.00514,-0.07813,1.01758,0.00195
833521316,-0.01871,0.99699,0.00399,-0.07422,1.00586,0.00098
833526159,-0.02438,1.00687,0.00422,-0.08008,1.01563,0.00098
833530999,-0.02053,1.00196,0.00897,-0.07617,1.01074,0.00586
833535839,-0.02257,1.00097,0.00413,-0.07813,1.00977,0.00098
833540682,-0.02347,1.00393,0.00515,-0.07910,1.01270,0.00195
833545530,-0.02238,1.00689,0.00905,-0.07813,1.01563,0.00586
833550377,-0.01960,0.99998,0.00795,-0.07520,1.00879,0.00488
833555214,-0.02240,1.00682,0.00317,-0.07813,1.01563,0.00000
833559851,-0.02137,1.00782,0.00608,-0.07715,1.01660,0.00293
833564690,-0.02438,1.00688,0.00520,-0.08008,1.01563,0.00195
833569525,-0.02061,0.99996,0.00407,-0.07617,1.00879,0.00098
833574354,-0.02046,1.00487,0.00604,-0.07617,1.01367,0.00293
833579199,-0.02138,1.00780,0.00412,-0.07715,1.01660,0.00098
833584042,-0.02043,1.00586,0.00703,-0.07617,1.01465,0.00391
833588888,-0.02063,0.99900,0.00602,-0.07617,1.00781,0.00293
833593716,-0.02179,0.99314,0.00506,-0.07715,1.00195,0.00195
833598344,-0.02733,1.00789,0.00431,-0.08301,1.01660,0.00098
833603189,-0.01962,0.99901,0.00893,-0.07520,1.00781,0.00586
833608029,-0.02158,1.00001,0.00802,-0.07715,1.00879,0.00488
833612865,-0.02346,1.00487,0.00222,-0.07910,1.01367,-0.00098
833617707,-0.01959,1.00092,0.00404,-0.07520,1.00977,0.00098
833622546,-0.02360,0.99998,0.00220,-0.07910,1.00879,-0.00098
833627386,-0.02173,0.99510,0.00604,-0.07715,1.00391,0.00293
833632228,-0.02160,0.99998,0.00508,-0.07715,1.00879,0.00195
833636863,-0.02348,1.00392,0.00417,-0.07910,1.01270,0.00098
833641704,-0.02555,1.00100,0.00325,-0.08105,1.00977,0.00000
833646539,-0.02638,1.00687,0.00134,-0.08203,1.01563,-0.00195
833651382,-0.02062,0.99993,0.00211,-0.07617,1.00879,-0.00098
833656215,-0.01937,1.00873,0.00309,-0.07520,1.01758,0.00000
833661056,-0.02356,1.00098,0.00416,-0.07910,1.00977,0.00098
833665903,-0.01935,1.00877,0.00700,-0.07520,1.01758,0.00391
833670733,-0.02336,1.00784,0.00517,-0.07910,1.01660,0.00195
833675577,-0.02072,0.99605,0.00503,-0.07617,1.00488,0.00195
833680219,-0.02450,1.00294,0.00322,-0.08008,1.01172,0.00000
833685056,-0.02350,1.00294,0.00417,-0.07910,1.01172,0.00098
833689892,-0.02130,1.01072,0.00315,-0.07715,1.01953,0.00000
833694736,-0.02561,0.99905,0.00324,-0.08105,1.00781,0.00000
833699570,-0.02659,0.99908,0.00425,-0.08203,1.00781,0.00098
833704407,-0.01873,0.99603,0.00595,-0.07422,1.00488,0.00293
833709239,-0.01958,1.00186,0.00110,-0.07520,1.01074,-0.00195
833714081,-0.02031,1.00979,0.00900,-0.07617,1.01855,0.00586
833718712,-0.02249,1.00388,0.00218,-0.07813,1.01270,-0.00098
833723539,-0.02159,1.00091,0.00018,-0.07715,1.00977,-0.00293
833728377,-0.02247,1.00393,0.00708,-0.07813,1.01270,0.00391
833733213,-0.02074,0.99509,0.00601,-0.07617,1.00391,0.00293
833738040,-0.02651,1.00200,0.00328,-0.08203,1.01074,0.00000
833742876,-0.02356,1.00098,0.00416,-0.07910,1.00977,0.00098
833747718,-0.02138,1.00780,0.00412,-0.07715,1.01660,0.00098
833752553,-0.01939,1.00777,0.00504,-0.07520,1.01660,0.00195
833757388,-0.02266,0.99709,0.00706,-0.07813,1.00586,0.00391
833762023,-0.02464,0.99806,0.00419,-0.08008,1.00684,0.00098
833766860,-0.02469,0.99612,0.00516,-0.08008,1.00488,0.00195
833771695,-0.02057,1.00188,0.00113,-0.07617,1.01074,-0.00195
833776543,-0.02446,1.00394,0.00519,-0.08008,1.01270,0.00195
833781393,-0.02268,0.99704,0.00314,-0.07813,1.00586,0.00000
833786223,-0.02456,1.00099,0.00322,-0.08008,1.00977,0.00000
833791065,-0.02543,1.00493,0.00424,-0.08105,1.01367,0.00098
833795908,-0.02146,1.00486,0.00411,-0.07715,1.01367,0.00098
833800548,-0.02162,0.99903,0.00703,-0.07715,1.00781,0.00391
833805384,-0.02358,1.00001,0.00514,-0.07910,1.00879,0.00195
833810232,-0.02352,1.00199,0.00711,-0.07910,1.01074,0.00391
833815076,-0.02246,1.00394,0.00806,-0.07813,1.01270,0.00488
833819918,-0.02263,0.99809,0.00902,-0.07813,1.00684,0.00586
833824746,-0.02124,1.01361,-0.00075,-0.07715,1.02246,-0.00391
833829598,-0.02451,1.00201,0.00714,-0.08008,1.01074,0.00391
833834424,-0.02549,1.00297,0.00423,-0.08105,1.01172,0.00098
833839056,-0.01957,1.00188,0.00306,-0.07520,1.01074,0.00000
833843890,-0.01960,1.00088,0.00110,-0.07520,1.00977,-0.00195
833848738,-0.02055,1.00192,0.00505,-0.07617,1.01074,0.00195
833853577,-0.02157,1.00096,0.00508,-0.07715,1.00977,0.00195
833858414,-0.02344,1.00492,0.00614,-0.07910,1.01367,0.00293
833863257,-0.02476,0.99413,0.00221,-0.08008,1.00293,-0.00098
833868092,-0.01764,0.99897,0.00789,-0.07324,1.00781,0.00488
833872938,-0.02469,0.99612,0.00516,-0.08008,1.00488,0.00195
833877777,-0.01769,0.99794,0.00299,-0.07324,1.00684,0.00000
833882398,-0.01977,0.99409,0.00597,-0.07520,1.00293,0.00293
833887238,-0.02150,1.00294,0.00705,-0.07715,1.01172,0.00391
833892083,-0.02241,1.00681,0.00219,-0.07813,1.01563,-0.00098
833896920,-0.02469,0.99519,0.01005,-0.08008,1.00391,0.00684
833901762,-0.02438,1.00689,0.00618,-0.08008,1.01563,0.00293
833906607,-0.01853,1.00289,0.00695,-0.07422,1.01172,0.00391
833911455,-0.02364,0.99805,0.00416,-0.07910,1.00684,0.00098
833916294,-0.01859,1.00091,0.00499,-0.07422,1.00977,0.00195
833920936,-0.02265,0.99804,0.00510,-0.07813,1.00684,0.00195
833925781,-0.02638,1.00595,0.00721,-0.08203,1.01465,0.00391
833930630,-0.02070,0.99701,0.00308,-0.07617,1.00586,0.00000
833935459,-0.01747,1.00576,0.00301,-0.07324,1.01465,0.00000
833940297,-0.01666,0.99892,0.00492,-0.07227,1.00781,0.00195
833945135,-0.02267,0.99706,0.00510,-0.07813,1.00586,0.00195
833949974,-0.02331,1.00886,0.00909,-0.07910,1.01758,0.00586
833954810,-0.02347,1.00393,0.00515,-0.07910,1.01270,0.00195
833959446,-0.02543,1.00493,0.00424,-0.08105,1.01367,0.00098
833964281,-0.02042,1.00679,0.00311,-0.07617,1.01563,0.00000
833969117,-0.01963,0.99992,0.00208,-0.07520,1.00879,-0.00098
833973950,-0.02145,1.00488,0.00607,-0.07715,1.01367,0.00293
833978791,-0.02344,1.00583,0.00026,-0.07910,1.01465,-0.00293
833983635,-0.02444,1.00491,0.00421,-0.08008,1.01367,0.00098
833988477,-0.02376,0.99412,0.00316,-0.07910,1.00293,0.00000
833993316,-0.01965,0.99895,0.00305,-0.07520,1.00781,0.00000
833998153,-0.02348,1.00391,0.00320,-0.07910,1.01270,0.00000
834002876,-0.02666,0.99618,0.00816,-0.08203,1.00488,0.00488
834007715,-0.02024,1.01268,0.00509,-0.07617,1.02148,0.00195
834012552,-0.02463,0.99809,0.00615,-0.08008,1.00684,0.00293
834017384,-0.02066,0.99802,0.00602,-0.07617,1.00684,0.00293
834022209,-0.02448,1.00390,0.00127,-0.08008,1.01270,-0.00195
834027046,-0.02052,1.00290,0.00506,-0.07617,1.01172,0.00195
834031887,-0.02660,0.99906,0.00327,-0.08203,1.00781,0.00000
834036715,-0.01984,0.99210,0.00303,-0.07520,1.00098,0.00000
834041348,-0.02366,0.99802,0.00122,-0.07910,1.00684,-0.00195
834046182,-0.02478,0.99316,0.00319,-0.08008,1.00195,0.00000
834051012,-0.02146,1.00487,0.00509,-0.07715,1.01367,0.00195
834055857,-0.02258,1.00003,0.00805,-0.07813,1.00879,0.00488
834060698,-0.02647,1.00302,0.00721,-0.08203,1.01172,0.00391
834065540,-0.02355,1.00099,0.00514,-0.07910,1.00977,0.00195
834070379,-0.02335,1.00785,0.00615,-0.07910,1.01660,0.00293
834075223,-0.02345,1.00488,0.00320,-0.07910,1.01367,0.00000
834080064,-0.02349,1.00387,0.00026,-0.07910,1.01270,-0.00293
834084701,-0.02055,1.00100,0.00995,-0.07617,1.00977,0.00684
834089538,-0.02041,1.00589,0.00996,-0.07617,1.01465,0.00684
834094382,-0.02147,1.00484,0.00216,-0.07715,1.01367,-0.00098
834099232,-0.02355,1.00100,0.00612,-0.07910,1.00977,0.00293
834104066,-0.02355,1.00101,0.00710,-0.07910,1.00977,0.00391
834108904,-0.02547,1.00394,0.00326,-0.08105,1.01270,0.00000
834113744,-0.02136,1.00784,0.00804,-0.07715,1.01660,0.00488
834118574,-0.01729,1.01166,0.00597,-0.07324,1.02051,0.00293
834123214,-0.02353,1.00197,0.00515,-0.07910,1.01074,0.00195
834128051,-0.02359,0.99999,0.00318,-0.07910,1.00879,0.00000
834132886,-0.02382,0.99216,0.00218,-0.07910,1.00098,-0.00098
834137721,-0.01957,1.00095,0.00698,-0.07520,1.00977,0.00391
834142561,-0.01859,1.00091,0.00499,-0.07422,1.00977,0.00195
834147405,-0.02466,0.99710,0.00516,-0.08008,1.00586,0.00195
834152240,-0.02359,0.99999,0.00318,-0.07910,1.00879,0.00000
834157069,-0.02040,1.00682,0.00605,-0.07617,1.01563,0.00293
834161709,-0.01540,1.00868,0.00394,-0.07129,1.01758,0.00098
834166554,-0.02159,0.99999,0.00606,-0.07715,1.00879,0.00293
834171390,-0.02257,1.00097,0.00413,-0.07813,1.00977,0.00098
834176226,-0.02659,0.99909,0.00523,-0.08203,1.00781,0.00195
834181072,-0.01853,1.00289,0.00695,-0.07422,1.01172,0.00391
834185912,-0.02342,1.00588,0.00516,-0.07910,1.01465,0.00195
834190742,-0.02137,1.00874,0.00119,-0.07715,1.01758,-0.00195
834195586,-0.02476,0.99322,0.00809,-0.08008,1.00195,0.00488
834200420,-0.02541,1.00497,0.00816,-0.08105,1.01367,0.00488
834205045,-0.01963,0.99992,0.00208,-0.07520,1.00879,-0.00098
834209891,-0.02058,1.00093,0.00407,-0.07617,1.00977,0.00098
834214736,-0.02071,0.99607,0.00699,-0.07617,1.00488,0.00391
834219574,-0.02660,0.99905,0.00229,-0.08203,1.00781,-0.00098
834224415,-0.02142,1.00587,0.00706,-0.07715,1.01465,0.00391
834229254,-0.02577,0.99318,0.00322,-0.08105,1.00195,0.00000
834234085,-0.02047,1.00484,0.00310,-0.07617,1.01367,0.00000
834238925,-0.01950,1.00387,0.00601,-0.07520,1.01270,0.00293
834243562,-0.02042,1.00679,0.00311,-0.07617,1.01563,0.00000
834248408,-0.02047,1.00486,0.00506,-0.07617,1.01367,0.00195
834253237,-0.02152,1.00198,0.00900,-0.07715,1.01074,0.00586
834258077,-0.02158,1.00094,0.00312,-0.07715,1.00977,0.00000
834262911,-0.01874,0.99600,0.00301,-0.07422,1.00488,0.00000
834267745,-0.02056,1.00190,0.00309,-0.07617,1.01074,0.00000
834272571,-0.02355,1.00100,0.00612,-0.07910,1.00977,0.00293
834277408,-0.01869,0.99702,0.00693,-0.07422,1.00586,0.00391
834282045,-0.02256,1.00098,0.00511,-0.07813,1.00977,0.00195
834286892,-0.02341,1.00589,0.00614,-0.07910,1.01465,0.00293
834291732,-0.02455,1.00101,0.00518,-0.08008,1.00977,0.00195
834296574,-0.02141,1.00590,0.01000,-0.07715,1.01465,0.00684
834301414,-0.02134,1.00880,0.00609,-0.07715,1.01758,0.00293
834306254,-0.02544,1.00492,0.00326,-0.08105,1.01367,0.00000
834311085,-0.01943,1.00676,0.00210,-0.07520,1.01563,-0.00098
834315927,-0.02062,0.99902,0.00798,-0.07617,1.00781,0.00488
834320768,-0.01855,1.00191,0.00695,-0.07422,1.01074,0.00391
834325409,-0.02464,0.99805,0.00321,-0.08008,1.00684,0.00000
834330251,-0.02560,0.99906,0.00422,-0.08105,1.00781,0.00098
834335092,-0.02145,1.00488,0.00607,-0.07715,1.01367,0.00293
834339939,-0.02045,1.00580,0.00213,-0.07617,1.01465,-0.00098
834344780,-0.02452,1.00198,0.00420,-0.08008,1.01074,0.00098
834349617,-0.02067,0.99800,0.00406,-0.07617,1.00684,0.00098
834354459,-0.02457,1.00097,0.00126,-0.08008,1.00977,-0.00195
834359295,-0.01968,0.99797,0.00305,-0.07520,1.00684,0.00000
834363924,-0.02057,1.00097,0.00701,-0.07617,1.00977,0.00391
834368766,-0.02260,0.99998,0.00315,-0.07813,1.00879,0.00000
834373594,-0.01733,1.01065,0.00303,-0.07324,1.01953,0.00000
834378430,-0.01845,1.00581,0.00598,-0.07422,1.01465,0.00293
834383275,-0.01838,1.00780,0.00893,-0.07422,1.01660,0.00586
834388104,-0.02083,0.99214,0.00502,-0.07617,1.00098,0.00195
834392938,-0.02157,1.00095,0.00410,-0.07715,1.00977,0.00098
834397774,-0.02352,1.00198,0.00613,-0.07910,1.01074,0.00293
834402618,-0.01864,0.99897,0.00596,-0.07422,1.00781,0.00293
834407252,-0.02270,0.99610,0.00608,-0.07813,1.00488,0.00293
834412087,-0.02050,1.00386,0.00310,-0.07617,1.01270,0.00000
834416920,-0.02240,1.00682,0.00317,-0.07813,1.01563,0.00000
834421753,-0.02078,0.99409,0.00405,-0.07617,1.00293,0.00098
834426599,-0.02539,1.00686,0.00229,-0.08105,1.01563,-0.00098
834431439,-0.02466,0.99618,0.01104,-0.08008,1.00488,0.00781
834436275,-0.02552,1.00198,0.00325,-0.08105,1.01074,0.00000
834441115,-0.02637,1.00599,0.01015,-0.08203,1.01465,0.00684
834445745,-0.02734,1.00696,0.00823,-0.08301,1.01563,0.00488
834450585,-0.02039,1.00686,0.00899,-0.07617,1.01563,0.00586
834455430,-0.02657,1.00005,0.00426,-0.08203,1.00879,0.00098
834460273,-0.02462,0.99810,0.00713,-0.08008,1.00684,0.00391
834465106,-0.02664,0.99713,0.00523,-0.08203,1.00586,0.00195
834469946,-0.02163,0.99899,0.00410,-0.07715,1.00781,0.00098
834474786,-0.02037,1.00781,0.00703,-0.07617,1.01660,0.00391
834479622,-0.02560,0.99907,0.00520,-0.08105,1.00781,0.00195
834484250,-0.02253,1.00197,0.00610,-0.07813,1.01074,0.00293
834489089,-0.02554,1.00102,0.00423,-0.08105,1.00977,0.00098
834493928,-0.01934,1.00971,0.00309,-0.07520,1.01855,0.00000
834498764,-0.02751,1.00200,0.00234,-0.08301,1.01074,-0.00098
834503594,-0.02328,1.01076,0.00420,-0.07910,1.01953,0.00098
834508440,-0.02635,1.00694,0.00820,-0.08203,1.01563,0.00488
834513283,-0.02364,0.99806,0.00513,-0.07910,1.00684,0.00195
834518117,-0.02151,1.00200,0.01096,-0.07715,1.01074,0.00781
834522962,-0.02141,1.00682,0.00412,-0.07715,1.01563,0.00098
834527603,-0.02450,1.00295,0.00420,-0.08008,1.01172,0.00098
834532448,-0.02659,0.99908,0.00425,-0.08203,1.00781,0.00098
834537279,-0.02751,1.00202,0.00331,-0.08301,1.01074,0.00000
834542120,-0.02549,1.00205,0.00913,-0.08105,1.01074,0.00586
834546964,-0.02338,1.00687,0.00614,-0.07910,1.01563,0.00293
834551811,-0.02350,1.00295,0.00515,-0.07910,1.01172,0.00195
834556649,-0.02368,0.99706,0.00317,-0.07910,1.00586,0.00000
834561477,-0.02033,1.00881,0.00899,-0.07617,1.01758,0.00586
834566116,-0.02164,0.99806,0.00801,-0.07715,1.00684,0.00488
834570935,-0.02536,1.00692,0.00719,-0.08105,1.01563,0.00391
834575752,-0.02542,1.00587,0.00131,-0.08105,1.01465,-0.00195
834580575,-0.02444,1.00491,0.00421,-0.08008,1.01367,0.00098
834585399,-0.02341,1.00682,0.00125,-0.07910,1.01563,-0.00195
834590213,-0.01659,1.00184,0.00297,-0.07227,1.01074,0.00000
834595035,-0.02057,1.00097,0.00701,-0.07617,1.00977,0.00391
834599852,-0.02451,1.00293,0.00224,-0.08008,1.01172,-0.00098
834604480,-0.02049,1.00389,0.00604,-0.07617,1.01270,0.00293
834609322,-0.02160,0.99906,0.00997,-0.07715,1.00781,0.00684
834614162,-0.02170,0.99701,0.00115,-0.07715,1.00586,-0.00195
834618996,-0.02032,1.00976,0.00606,-0.07617,1.01855,0.00293
834623835,-0.02561,0.99903,0.00128,-0.08105,1.00781,-0.00195
834628672,-0.01855,1.00191,0.00695,-0.07422,1.01074,0.00391
834633519,-0.02278,0.99409,0.00117,-0.07813,1.00293,-0.00195
834638362,-0.02342,1.00587,0.00418,-0.07910,1.01465,0.00098
834643197,-0.02059,1.00092,0.00309,-0.07617,1.00977,0.00000
834647830,-0.02152,1.00198,0.00900,-0.07715,1.01074,0.00586
834652668,-0.02343,1.00494,0.00810,-0.07910,1.01367,0.00488
834657507,-0.02438,1.00688,0.00520,-0.08008,1.01563,0.00195
834662346,-0.02240,1.00683,0.00415,-0.07813,1.01563,0.00098
834667193,-0.02676,0.99321,0.00423,-0.08203,1.00195,0.00098
834672041,-0.02358,1.00003,0.00612,-0.07910,1.00879,0.00293
834676884,-0.02157,1.00096,0.00508,-0.07715,1.00977,0.00195
834681717,-0.02149,1.00388,0.00411,-0.07715,1.01270,0.00098
834686356,-0.02334,1.00880,0.00321,-0.07910,1.01758,0.00000
834691193,-0.02462,0.99810,0.00713,-0.08008,1.00684,0.00391
834696039,-0.02341,1.00589,0.00614,-0.07910,1.01465,0.00293
834700872,-0.02052,1.00290,0.00506,-0.07617,1.01172,0.00195
834705710,-0.02431,1.00979,0.00325,-0.08008,1.01855,0.00000
834710552,-0.02231,1.00978,0.00514,-0.07813,1.01855,0.00195
834715397,-0.02267,0.99708,0.00608,-0.07813,1.00586,0.00293
834720235,-0.02339,1.00686,0.00516,-0.07910,1.01563,0.00195
834725075,-0.01970,0.99608,0.00892,-0.07520,1.00488,0.00586
834729706,-0.01993,0.98917,0.00302,-0.07520,0.99805,0.00000
834734536,-0.01940,1.00774,0.00210,-0.07520,1.01660,-0.00098
834739374,-0.02632,1.00885,0.00331,-0.08203,1.01758,0.00000
834744215,-0.02067,0.99800,0.00406,-0.07617,1.00684,0.00098
834749056,-0.02455,1.00100,0.00420,-0.08008,1.00977,0.00098
834753887,-0.02534,1.00881,0.00132,-0.08105,1.01758,-0.00195
834758730,-0.02255,1.00100,0.00707,-0.07813,1.00977,0.00391
834763578,-0.02577,0.99319,0.00420,-0.08105,1.00195,0.00098
834768212,-0.02360,0.99906,0.00710,-0.07910,1.00781,0.00391
834773054,-0.02359,0.99999,0.00318,-0.07910,1.00879,0.00000
834777891,-0.02247,1.00392,0.00610,-0.07813,1.01270,0.00293
834782731,-0.02342,1.00587,0.00418,-0.07910,1.01465,0.00098
834787565,-0.02044,1.00582,0.00409,-0.07617,1.01465,0.00098
834792406,-0.01651,1.00476,0.00200,-0.07227,1.01367,-0.00098
834797243,-0.01950,1.00479,0.00013,-0.07520,1.01367,-0.00293
834802068,-0.02459,0.99909,0.00811,-0.08008,1.00781,0.00488
834806699,-0.01944,1.00582,0.00503,-0.07520,1.01465,0.00195
834811542,-0.01972,0.99604,0.00500,-0.07520,1.00488,0.00195
834816382,-0.02156,1.00097,0.00606,-0.07715,1.00977,0.00293
834821217,-0.01287,0.99296,0.00183,-0.06836,1.00195,-0.00098
834826052,-0.02038,1.00780,0.00605,-0.07617,1.01660,0.00293
834830893,-0.02533,1.00790,0.00817,-0.08105,1.01660,0.00488
834835736,-0.02765,0.99621,0.00917,-0.08301,1.00488,0.00586
834840582,-0.02363,0.99807,0.00611,-0.07910,1.00684,0.00293
834845430,-0.02437,1.00691,0.00813,-0.08008,1.01563,0.00488
834850055,-0.02368,0.99705,0.00219,-0.07910,1.00586,-0.00098
834854879,-0.02265,0.99803,0.00412,-0.07813,1.00684,0.00098
834859718,-0.02552,1.00199,0.00423,-0.08105,1.01074,0.00098
834864550,-0.02559,0.99908,0.00618,-0.08105,1.00781,0.00293
834869382,-0.02254,1.00193,0.00316,-0.07813,1.01074,0.00000
834874217,-0.02529,1.00983,0.00524,-0.08105,1.01855,0.00195
834879057,-0.02062,0.99993,0.00211,-0.07617,1.00879,-0.00098
834883892,-0.02342,1.00587,0.00418,-0.07910,1.01465,0.00098
834888531,-0.01847,1.00576,0.00108,-0.07422,1.01465,-0.00195
834893373,-0.02442,1.00495,0.00813,-0.08008,1.01367,0.00488
834898220,-0.01767,0.99798,0.00690,-0.07324,1.00684,0.00391
834903055,-0.02246,1.00394,0.00806,-0.07813,1.01270,0.00488
834907888,-0.02461,0.99903,0.00321,-0.08008,1.00781,0.00000
834912719,-0.02247,1.00392,0.00610,-0.07813,1.01270,0.00293
834917564,-0.02435,1.00878,0.00030,-0.08008,1.01758,-0.00293
834922408,-0.02089,0.99016,0.00305,-0.07617,0.99902,0.00000
834927032,-0.01762,1.00084,0.00006,-0.07324,1.00977,-0.00293
834931871,-0.02562,0.99902,0.00030,-0.08105,1.00781,-0.00293
834936717,-0.02233,1.00973,0.00024,-0.07813,1.01855,-0.00293
834941558,-0.02044,1.00583,0.00507,-0.07617,1.01465,0.00195
834946394,-0.02167,0.99708,0.00801,-0.07715,1.00586,0.00488
834951231,-0.02354,1.00103,0.00808,-0.07910,1.00977,0.00488
834956072,-0.02268,0.99705,0.00412,-0.07813,1.00586,0.00098
834960911,-0.02060,0.99997,0.00505,-0.07617,1.00879,0.00195
834965757,-0.02221,1.01275,0.00809,-0.07813,1.02148,0.00488
834970392,-0.02147,1.00484,0.00216,-0.07715,1.01367,-0.00098
834975235,-0.02067,0.99800,0.00406,-0.07617,1.00684,0.00098
834980070,-0.02354,1.00194,0.00221,-0.07910,1.01074,-0.00098
834984903,-0.01972,0.99605,0.00598,-0.07520,1.00488,0.00293
834989741,-0.02556,1.00006,0.00618,-0.08105,1.00879,0.00293
834994579,-0.02555,1.00100,0.00325,-0.08105,1.00977,0.00000
834999410,-0.02545,1.00490,0.00130,-0.08105,1.01367,-0.00195
835004348,-0.02554,1.00102,0.00423,-0.08105,1.00977,0.00098
835008987,-0.02443,1.00493,0.00617,-0.08008,1.01367,0.00293
835013823,-0.01955,1.00193,0.00698,-0.07520,1.01074,0.00391
835018667,-0.02069,0.99703,0.00504,-0.07617,1.00586,0.00195
835023508,-0.02635,1.00695,0.00918,-0.08203,1.01563,0.00586
835028354,-0.02245,1.00396,0.01002,-0.07813,1.01270,0.00684
835033189,-0.02187,0.99114,0.00113,-0.07715,1.00000,-0.00195
835038025,-0.02554,1.00104,0.00619,-0.08105,1.00977,0.00293
835042865,-0.01962,0.99902,0.00991,-0.07520,1.00781,0.00684
835047494,-0.02431,1.00887,0.00814,-0.08008,1.01758,0.00488
835052339,-0.02359,1.00000,0.00416,-0.07910,1.00879,0.00098
835057178,-0.02163,0.99898,0.00312,-0.07715,1.00781,0.00000
835062011,-0.02467,0.99708,0.00320,-0.08008,1.00586,0.00000
835066843,-0.02147,1.00484,0.00216,-0.07715,1.01367,-0.00098
835071689,-0.01655,1.00285,0.00591,-0.07227,1.01172,0.00293
835076529,-0.02074,0.99508,0.00503,-0.07617,1.00391,0.00195
835081365,-0.02259,0.99999,0.00413,-0.07813,1.00879,0.00098
835086205,-0.01981,0.99310,0.00499,-0.07520,1.00195,0.00195
835090842,-0.02249,1.00389,0.00316,-0.07813,1.01270,0.00000
835095683,-0.02437,1.00691,0.00813,-0.08008,1.01563,0.00488
835100515,-0.02377,0.99409,0.00022,-0.07910,1.00293,-0.00293
835105351,-0.02243,1.00585,0.00317,-0.07813,1.01465,0.00000
835110197,-0.02264,0.99805,0.00608,-0.07813,1.00684,0.00293
835115037,-0.02464,0.99806,0.00419,-0.08008,1.00684,0.00098
835119870,-0.02156,1.00191,0.00215,-0.07715,1.01074,-0.00098
835124711,-0.02386,0.99024,0.00609,-0.07910,0.99902,0.00293
835129342,-0.02447,1.00301,0.00910,-0.08008,1.01172,0.00586
835134183,-0.02157,1.00096,0.00508,-0.07715,1.00977,0.00195
835139015,-0.02541,1.00588,0.00229,-0.08105,1.01465,-0.00098
835143854,-0.02441,1.00590,0.00519,-0.08008,1.01465,0.00195
835148694,-0.01959,1.00091,0.00306,-0.07520,1.00977,0.00000
835153532,-0.02170,0.99608,0.00604,-0.07715,1.00488,0.00293
835158371,-0.02265,0.99804,0.00510,-0.07813,1.00684,0.00195
835163203,-0.01945,1.00580,0.00308,-0.07520,1.01465,0.00000
835168037,-0.02275,0.99414,0.00607,-0.07813,1.00293,0.00293
835172674,-0.01673,0.99602,0.00785,-0.07227,1.00488,0.00488
835177513,-0.02360,0.99997,0.00122,-0.07910,1.00879,-0.00195
835182347,-0.02535,1.00786,0.00425,-0.08105,1.01660,0.00098
835187190,-0.01858,1.00186,0.00205,-0.07422,1.01074,-0.00098
835192032,-0.02370,0.99517,0.00904,-0.07910,1.00391,0.00586
835196871,-0.02434,1.00788,0.00716,-0.08008,1.01660,0.00391
835201718,-0.02932,1.00701,0.01025,-0.08496,1.01563,0.00684
835206557,-0.02348,1.00392,0.00417,-0.07910,1.01270,0.00098
835211187,-0.02449,1.00297,0.00518,-0.08008,1.01172,0.00195
835216032,-0.02260,0.99997,0.00217,-0.07813,1.00879,-0.00098
835220871,-0.02373,0.99511,0.00415,-0.07910,1.00391,0.00098
835225703,-0.02249,1.00296,0.00806,-0.07813,1.01172,0.00488
835230548,-0.02143,1.00585,0.00510,-0.07715,1.01465,0.00195
835235391,-0.02277,0.99410,0.00215,-0.07813,1.00293,-0.00098
835240231,-0.02047,1.00485,0.00408,-0.07617,1.01367,0.00098
835245064,-0.01849,1.00480,0.00304,-0.07422,1.01367,0.00000
835249696,-0.02253,1.00197,0.00610,-0.07813,1.01074,0.00293
835254529,-0.02470,0.99610,0.00320,-0.08008,1.00488,0.00000
835259365,-0.02343,1.00494,0.00810,-0.07910,1.01367,0.00488
835264194,-0.02073,0.99603,0.00307,-0.07617,1.00488,0.00000
835269027,-0.02037,1.00782,0.00801,-0.07617,1.01660,0.00488
835273869,-0.02350,1.00294,0.00417,-0.07910,1.01172,0.00098
835278702,-0.02144,1.00583,0.00314,-0.07715,1.01465,0.00000
835283534,-0.02445,1.00488,0.00127,-0.08008,1.01367,-0.00195
835288374,-0.01679,0.99497,0.00099,-0.07227,1.00391,-0.00195
835293007,-0.01767,0.99891,0.00201,-0.07324,1.00781,-0.00098
835297837,-0.02752,1.00107,0.00625,-0.08301,1.00977,0.00293
835302667,-0.02453,1.00104,0.00812,-0.08008,1.00977,0.00488
835307512,-0.02252,1.00198,0.00708,-0.07813,1.01074,0.00391
835312355,-0.02838,1.00597,0.00532,-0.08398,1.01465,0.00195
835317200,-0.02463,0.99809,0.00615,-0.08008,1.00684,0.00293
835322041,-0.01757,1.00188,0.00594,-0.07324,1.01074,0.00293
835326884,-0.02058,1.00093,0.00407,-0.07617,1.00977,0.00098
835331518,-0.02236,1.00876,0.00122,-0.07813,1.01758,-0.00195
835336362,-0.02368,0.99706,0.00317,-0.07910,1.00586,0.00000
835341203,-0.02248,1.00391,0.00512,-0.07813,1.01270,0.00195
835346049,-0.02161,0.99996,0.00312,-0.07715,1.00879,0.00000
835350886,-0.02776,0.99321,0.00329,-0.08301,1.00195,0.00000
835355715,-0.02541,1.00590,0.00326,-0.08105,1.01465,0.00000
835360554,-0.02169,0.99704,0.00409,-0.07715,1.00586,0.00098
835365399,-0.02356,1.00098,0.00416,-0.07910,1.00977,0.00098
835370037,-0.02087,0.99113,0.00208,-0.07617,1.00000,-0.00098
835374875,-0.01961,0.99996,0.00599,-0.07520,1.00879,0.00293
835379721,-0.02459,0.99907,0.00713,-0.08008,1.00781,0.00391
835384563,-0.02343,1.00494,0.00810,-0.07910,1.01367,0.00488
835389396,-0.01985,0.99209,0.00205,-0.07520,1.00098,-0.00098
835394240,-0.02543,1.00494,0.00522,-0.08105,1.01367,0.00195
835399083,-0.02055,1.00192,0.00505,-0.07617,1.01074,0.00195
835403917,-0.02073,0.99603,0.00307,-0.07617,1.00488,0.00000
835408753,-0.02259,0.99999,0.00413,-0.07813,1.00879,0.00098
835413386,-0.02242,1.00588,0.00611,-0.07813,1.01465,0.00293
835418230,-0.02446,1.00394,0.00519,-0.08008,1.01270,0.00195
835423064,-0.02232,1.00976,0.00318,-0.07813,1.01855,0.00000
835427903,-0.02428,1.01076,0.00227,-0.08008,1.01953,-0.00098
835432748,-0.01956,1.00191,0.00502,-0.07520,1.01074,0.00195
835437593,-0.02574,0.99417,0.00421,-0.08105,1.00293,0.00098
835442439,-0.02259,1.00000,0.00511,-0.07813,1.00879,0.00195
835447284,-0.02150,1.00387,0.00313,-0.07715,1.01270,0.00000
835451917,-0.02146,1.00395,0.00999,-0.07715,1.01270,0.00684
835456752,-0.02366,0.99802,0.00122,-0.07910,1.00684,-0.00195
835461588,-0.02537,1.00689,0.00523,-0.08105,1.01563,0.00195
835466424,-0.01858,1.00185,0.00107,-0.07422,1.01074,-0.00195
835471263,-0.01968,0.99797,0.00305,-0.07520,1.00684,0.00000
835476102,-0.01938,1.00871,0.00113,-0.07520,1.01758,-0.00195
835480937,-0.02177,0.99409,0.00310,-0.07715,1.00293,0.00000
835485774,-0.01757,1.00188,0.00594,-0.07324,1.01074,0.00293
835490402,-0.02028,1.01076,0.00802,-0.07617,1.01953,0.00488
835495236,-0.02352,1.00291,0.00123,-0.07910,1.01172,-0.00195
835500073,-0.02151,1.00292,0.00509,-0.07715,1.01172,0.00195
835504921,-0.01673,0.99602,0.00785,-0.07227,1.00488,0.00488
835509763,-0.02150,1.00387,0.00313,-0.07715,1.01270,0.00000
835514595,-0.02365,0.99803,0.00220,-0.07910,1.00684,-0.00098
835519440,-0.02458,1.00003,0.00517,-0.08008,1.00879,0.00195
835524281,-0.02428,1.01077,0.00325,-0.08008,1.01953,0.00000
835529108,-0.02244,1.00584,0.00219,-0.07813,1.01465,-0.00098
835533747,-0.02657,1.00004,0.00328,-0.08203,1.00879,0.00000
835538589,-0.01764,0.99990,0.00299,-0.07324,1.00879,0.00000
835543415,-0.02725,1.01084,0.00530,-0.08301,1.01953,0.00195
835548257,-0.02342,1.00586,0.00320,-0.07910,1.01465,0.00000
835553096,-0.02467,0.99706,0.00222,-0.08008,1.00586,-0.00098
835557939,-0.01850,1.00386,0.00598,-0.07422,1.01270,0.00293
835562779,-0.02158,1.00094,0.00312,-0.07715,1.00977,0.00000
835567612,-0.02047,1.00486,0.00506,-0.07617,1.01367,0.00195
835572254,-0.02550,1.00295,0.00228,-0.08105,1.01172,-0.00098
835577095,-0.02062,0.99993,0.00211,-0.07617,1.00879,-0.00098
835581937,-0.02542,1.00495,0.00620,-0.08105,1.01367,0.00293
835586765,-0.02440,1.00591,0.00617,-0.08008,1.01465,0.00293
835591604,-0.02067,0.99800,0.00406,-0.07617,1.00684,0.00098
835596446,-0.02078,0.99409,0.00405,-0.07617,1.00293,0.00098
835601285,-0.02142,1.00587,0.00706,-0.07715,1.01465,0.00391
835606118,-0.02070,0.99701,0.00308,-0.07617,1.00586,0.00000
835610954,-0.02153,1.00197,0.00802,-0.07715,1.01074,0.00488
835615586,-0.02458,1.00095,-0.00070,-0.08008,1.00977,-0.00391
835620416,-0.01947,1.00484,0.00503,-0.07520,1.01367,0.00195
835625259,-0.01356,1.00373,0.00190,-0.06934,1.01270,-0.00098
835630098,-0.02062,0.99902,0.00798,-0.07617,1.00781,0.00488
835634935,-0.02148,1.00392,0.00705,-0.07715,1.01270,0.00391
835639778,-0.01960,0.99997,0.00697,-0.07520,1.00879,0.00391
835644614,-0.02446,1.00395,0.00617,-0.08008,1.01270,0.00293
835649448,-0.02359,1.00000,0.00416,-0.07910,1.00879,0.00098
835654083,-0.02343,1.00584,0.00124,-0.07910,1.01465,-0.00195
835658922,-0.02258,1.00094,0.00217,-0.07813,1.00977,-0.00098
835663756,-0.02260,0.99997,0.00217,-0.07813,1.00879,-0.00098
835668587,-0.01822,1.01364,0.00601,-0.07422,1.02246,0.00293
835673427,-0.01763,0.99991,0.00397,-0.07324,1.00879,0.00098
835678267,-0.02275,0.99415,0.00705,-0.07813,1.00293,0.00391
835683109,-0.02162,0.99901,0.00605,-0.07715,1.00781,0.00293
835687955,-0.02067,0.99800,0.00406,-0.07617,1.00684,0.00098
835692583,-0.02385,0.99117,0.00119,-0.07910,1.00000,-0.00195
835697413,-0.01642,1.00771,0.00397,-0.07227,1.01660,0.00098
835702254,-0.02450,1.00295,0.00420,-0.08008,1.01172,0.00098
835707096,-0.02461,0.99903,0.00321,-0.08008,1.00781,0.00000
835711928,-0.01950,1.00294,0.00992,-0.07520,1.01172,0.00684
835716769,-0.02138,1.00779,0.00315,-0.07715,1.01660,0.00000
835721611,-0.01954,1.00286,0.00307,-0.07520,1.01172,0.00000
835726439,-0.02361,0.99904,0.00514,-0.07910,1.00781,0.00195
835731280,-0.02666,0.99710,0.00229,-0.08203,1.00586,-0.00098
835735914,-0.02359,0.99999,0.00318,-0.07910,1.00879,0.00000
835740743,-0.02441,1.00681,-0.00068,-0.08008,1.01563,-0.00391
835745591,-0.01748,1.00574,0.00105,-0.07324,1.01465,-0.00195
835750429,-0.01975,0.99598,0.00010,-0.07520,1.00488,-0.00293
835755270,-0.01940,1.00683,0.00798,-0.07520,1.01563,0.00488
835760097,-0.02160,0.99997,0.00410,-0.07715,1.00879,0.00098
835764936,-0.02259,1.00000,0.00511,-0.07813,1.00879,0.00195
835769776,-0.02375,0.99415,0.00512,-0.07910,1.00293,0.00195
835774418,-0.02259,1.00000,0.00511,-0.07813,1.00879,0.00195
835779253,-0.02372,0.99512,0.00512,-0.07910,1.00391,0.00195
835784089,-0.01758,1.00186,0.00398,-0.07324,1.01074,0.00098
835788928,-0.02263,0.99900,0.00315,-0.07813,1.00781,0.00000
835793768,-0.02143,1.00584,0.00412,-0.07715,1.01465,0.00098
835798605,-0.01852,1.00382,0.00304,-0.07422,1.01270,0.00000
835803440,-0.02074,0.99509,0.00601,-0.07617,1.00391,0.00293
835808272,-0.02256,1.00099,0.00609,-0.07813,1.00977,0.00293
835812911,-0.02549,1.00297,0.00423,-0.08105,1.01172,0.00098
835817733,-0.02154,1.00195,0.00606,-0.07715,1.01074,0.00293
835822574,-0.02248,1.00391,0.00512,-0.07813,1.01270,0.00195
835827418,-0.02542,1.00495,0.00620,-0.08105,1.01367,0.00293
835832256,-0.02256,1.00098,0.00511,-0.07813,1.00977,0.00195
835837094,-0.01965,0.99803,0.00795,-0.07520,1.00684,0.00488
835841934,-0.01967,0.99798,0.00403,-0.07520,1.00684,0.00098
835846774,-0.02154,1.00195,0.00606,-0.07715,1.01074,0.00293
835851620,-0.01774,0.99599,0.00396,-0.07324,1.00488,0.00098
835856239,-0.02162,0.99903,0.00703,-0.07715,1.00781,0.00391
835861072,-0.02744,1.00400,0.00626,-0.08301,1.01270,0.00293
835865914,-0.02149,1.00388,0.00411,-0.07715,1.01270,0.00098
835870763,-0.02167,0.99708,0.00801,-0.07715,1.00586,0.00488
835875600,-0.02134,1.00881,0.00707,-0.07715,1.01758,0.00391
835880449,-0.02466,0.99709,0.00418,-0.08008,1.00586,0.00098
835885288,-0.02247,1.00393,0.00708,-0.07813,1.01270,0.00391
835890134,-0.02143,1.00586,0.00608,-0.07715,1.01465,0.00293
835894771,-0.02158,1.00094,0.00312,-0.07715,1.00977,0.00000
835899604,-0.02452,1.00199,0.00518,-0.08008,1.01074,0.00195
835904437,-0.02649,1.00205,0.00818,-0.08203,1.01074,0.00488
835909275,-0.02371,0.99607,0.00219,-0.07910,1.00488,-0.00098
835914110,-0.01964,0.99898,0.00599,-0.07520,1.00781,0.00293
835918946,-0.01772,0.99697,0.00396,-0.07324,1.00586,0.00098
835923783,-0.01749,1.00389,0.01084,-0.07324,1.01270,0.00781
835928618,-0.02343,1.00493,0.00712,-0.07910,1.01367,0.00391
835933255,-0.02342,1.00587,0.00418,-0.07910,1.01465,0.00098
835938090,-0.02366,0.99709,0.00611,-0.07910,1.00586,0.00293
835942925,-0.02339,1.00595,0.01104,-0.07910,1.01465,0.00781
835947758,-0.01961,0.99995,0.00501,-0.07520,1.00879,0.00195
835952594,-0.02249,1.00389,0.00316,-0.07813,1.01270,0.00000
835957431,-0.02359,1.00000,0.00416,-0.07910,1.00879,0.00098
835962274,-0.02452,1.00199,0.00518,-0.08008,1.01074,0.00195
835967110,-0.02452,1.00198,0.00420,-0.08008,1.01074,0.00098
835971949,-0.01747,1.00576,0.00301,-0.07324,1.01465,0.00000
835976576,-0.02467,0.99616,0.00908,-0.08008,1.00488,0.00586
835981411,-0.02375,0.99415,0.00512,-0.07910,1.00293,0.00195
835986249,-0.02527,1.01079,0.00328,-0.08105,1.01953,0.00000
835991091,-0.02445,1.00488,0.00127,-0.08008,1.01367,-0.00195
835995926,-0.02475,0.99415,0.00417,-0.08008,1.00293,0.00098
836000806,-0.01955,1.00192,0.00600,-0.07520,1.01074,0.00293
836005693,-0.02259,0.99907,0.01000,-0.07813,1.00781,0.00684
836010535,-0.01753,1.00287,0.00692,-0.07324,1.01172,0.00391
836015177,-0.01545,1.00581,0.00981,-0.07129,1.01465,0.00684
836020010,-0.02439,1.00686,0.00324,-0.08008,1.01563,0.00000
836024844,-0.02153,1.00197,0.00802,-0.07715,1.01074,0.00488
836029675,-0.02487,0.99022,0.00220,-0.08008,0.99902,-0.00098
836034514,-0.02484,0.99121,0.00318,-0.08008,1.00000,0.00000
836039353,-0.02364,0.99713,0.01003,-0.07910,1.00586,0.00684
836044195,-0.01765,0.99894,0.00495,-0.07324,1.00781,0.00195
836049037,-0.02665,0.99712,0.00425,-0.08203,1.00586,0.00098
836053870,-0.02240,1.00683,0.00415,-0.07813,1.01563,0.00098
836058507,-0.01772,0.99697,0.00396,-0.07324,1.00586,0.00098
836063349,-0.02739,1.00594,0.00431,-0.08301,1.01465,0.00098
836068192,-0.02427,1.01078,0.00423,-0.08008,1.01953,0.00098
836073024,-0.02059,1.00000,0.00799,-0.07617,1.00879,0.00488
836077871,-0.02480,0.99221,0.00515,-0.08008,1.00098,0.00195
836082714,-0.02345,1.00489,0.00418,-0.07910,1.01367,0.00098
836087557,-0.02172,0.99604,0.00213,-0.07715,1.00488,-0.00098
836092392,-0.02050,1.00386,0.00310,-0.07617,1.01270,0.00000
836097023,-0.02079,0.99407,0.00209,-0.07617,1.00293,-0.00098
836101860,-0.02553,1.00106,0.00815,-0.08105,1.00977,0.00488
836106708,-0.01862,0.99993,0.00498,-0.07422,1.00879,0.00195
836111542,-0.02269,0.99703,0.00216,-0.07813,1.00586,-0.00098
836116375,-0.02549,1.00296,0.00325,-0.08105,1.01172,0.00000
836121209,-0.02147,1.00484,0.00216,-0.07715,1.01367,-0.00098
836126051,-0.02422,1.01274,0.00424,-0.08008,1.02148,0.00098
836130889,-0.02575,0.99415,0.00225,-0.08105,1.00293,-0.00098
836135522,-0.02637,1.00690,0.00428,-0.08203,1.01563,0.00098
836140357,-0.02244,1.00491,0.00709,-0.07813,1.01367,0.00391
836145189,-0.02238,1.00688,0.00807,-0.07813,1.01563,0.00488
836150034,-0.02043,1.00677,0.00115,-0.07617,1.01563,-0.00195
836154871,-0.02357,1.00005,0.00808,-0.07910,1.00879,0.00488
836159709,-0.02633,1.00790,0.00624,-0.08203,1.01660,0.00293
836164550,-0.02169,0.99702,0.00213,-0.07715,1.00586,-0.00098
836169396,-0.02449,1.00389,0.00029,-0.08008,1.01270,-0.00293
836174224,-0.02546,1.00395,0.00424,-0.08105,1.01270,0.00098
836178866,-0.02560,0.99907,0.00520,-0.08105,1.00781,0.00195
836183706,-0.02238,1.00688,0.00807,-0.07813,1.01563,0.00488
836188543,-0.02250,1.00387,0.00120,-0.07813,1.01270,-0.00195
836193386,-0.02048,1.00390,0.00702,-0.07617,1.01270,0.00391
836198224,-0.02246,1.00394,0.00806,-0.07813,1.01270,0.00488
836203064,-0.01981,0.99309,0.00401,-0.07520,1.00195,0.00098
836207904,-0.02361,0.99905,0.00612,-0.07910,1.00781,0.00293
836212744,-0.02470,0.99517,0.00810,-0.08008,1.00391,0.00488
836217380,-0.02055,1.00191,0.00407,-0.07617,1.01074,0.00098
836222212,-0.02450,1.00294,0.00322,-0.08008,1.01172,0.00000
836227044,-0.02046,1.00488,0.00702,-0.07617,1.01367,0.00391
836231884,-0.02238,1.00780,0.00318,-0.07813,1.01660,0.00000
836236720,-0.02337,1.00781,0.00223,-0.07910,1.01660,-0.00098
836241550,-0.02241,1.00590,0.00807,-0.07813,1.01465,0.00488
836246394,-0.02250,1.00204,0.01295,-0.07813,1.01074,0.00977
836251236,-0.02134,1.00881,0.00707,-0.07715,1.01758,0.00391
836255866,-0.02352,1.00199,0.00711,-0.07910,1.01074,0.00391
836260697,-0.01870,0.99700,0.00497,-0.07422,1.00586,0.00195
836265537,-0.01665,0.99986,0.00100,-0.07227,1.00879,-0.00195
836270373,-0.02759,0.99817,0.00918,-0.08301,1.00684,0.00586
836275211,-0.02057,1.00187,0.00015,-0.07617,1.01074,-0.00293
836280057,-0.02064,0.99897,0.00308,-0.07617,1.00781,0.00000
836284892,-0.02139,1.00685,0.00706,-0.07715,1.01563,0.00391
836289736,-0.02151,1.00293,0.00607,-0.07715,1.01172,0.00293
836294579,-0.02365,0.99804,0.00318,-0.07910,1.00684,0.00000
836299211,-0.02135,1.00879,0.00511,-0.07715,1.01758,0.00195
836304042,-0.02352,1.00199,0.00711,-0.07910,1.01074,0.00391
836308889,-0.02335,1.00786,0.00713,-0.07910,1.01660,0.00391
836313721,-0.02651,1.00108,0.00916,-0.08203,1.00977,0.00586
836318560,-0.02073,0.99695,-0.00280,-0.07617,1.00586,-0.00586
836323394,-0.02176,0.99595,-0.00571,-0.07715,1.00488,-0.00879
836328240,-0.02355,1.00099,0.00514,-0.07910,1.00977,0.00195
836333084,-0.01958,1.00186,0.00110,-0.07520,1.01074,-0.00195
836337715,-0.02651,1.00200,0.00328,-0.08203,1.01074,0.00000
836342557,-0.01682,0.99308,0.00686,-0.07227,1.00195,0.00391
836347393,-0.02367,0.99707,0.00415,-0.07910,1.00586,0.00098
836352231,-0.02150,1.00294,0.00705,-0.07715,1.01172,0.00391
836357064,-0.02456,1.00099,0.00322,-0.08008,1.00977,0.00000
836361907,-0.01953,1.00196,0.00992,-0.07520,1.01074,0.00684
836366753,-0.01758,1.00185,0.00300,-0.07324,1.01074,0.00000
836371590,-0.01938,1.00779,0.00602,-0.07520,1.01660,0.00293
836376222,-0.02258,1.00094,0.00217,-0.07813,1.00977,-0.00098
836381059,-0.01993,0.98916,0.00204,-0.07520,0.99805,-0.00098
836385886,-0.01878,0.99500,0.00105,-0.07422,1.00391,-0.00195
836390726,-0.02938,1.00504,0.00829,-0.08496,1.01367,0.00488
836395565,-0.02442,1.00588,0.00323,-0.08008,1.01465,0.00000
836400390,-0.02391,0.98921,0.00119,-0.07910,0.99805,-0.00195
836405235,-0.02343,1.00493,0.00712,-0.07910,1.01367,0.00391
836410078,-0.01667,0.99890,0.00296,-0.07227,1.00781,0.00000
836414907,-0.02162,0.99901,0.00605,-0.07715,1.00781,0.00293
836419541,-0.02547,1.00394,0.00326,-0.08105,1.01270,0.00000
836424382,-0.02358,1.00001,0.00514,-0.07910,1.00879,0.00195
836429227,-0.02169,0.99610,0.00800,-0.07715,1.00488,0.00488
836434067,-0.02149,1.00389,0.00509,-0.07715,1.01270,0.00195
836438911,-0.02266,0.99709,0.00706,-0.07813,1.00586,0.00391
836443755,-0.02454,1.00103,0.00714,-0.08008,1.00977,0.00391
836448602,-0.02335,1.00787,0.00811,-0.07910,1.01660,0.00488
836453430,-0.01542,1.00770,0.00394,-0.07129,1.01660,0.00098
836458067,-0.02361,0.99904,0.00514,-0.07910,1.00781,0.00195
836462904,-0.02255,1.00101,0.00805,-0.07813,1.00977,0.00488
836467741,-0.02437,1.00782,0.00226,-0.08008,1.01660,-0.00098
836472574,-0.02465,0.99803,0.00125,-0.08008,1.00684,-0.00195
836477415,-0.02556,1.00098,0.00129,-0.08105,1.00977,-0.00195
836482247,-0.02331,1.00979,0.00419,-0.07910,1.01855,0.00098
836487095,-0.02662,0.99810,0.00425,-0.08203,1.00684,0.00098
836491936,-0.02456,1.00007,0.00909,-0.08008,1.00879,0.00586
836496778,-0.02342,1.00587,0.00418,-0.07910,1.01465,0.00098
836501424,-0.02359,1.00000,0.00416,-0.07910,1.00879,0.00098
836506268,-0.01350,1.00569,0.00191,-0.06934,1.01465,-0.00098
836511105,-0.02239,1.00685,0.00513,-0.07813,1.01563,0.00195
836515945,-0.01745,1.00673,0.00204,-0.07324,1.01563,-0.00098
836520788,-0.01861,1.00088,0.00205,-0.07422,1.00977,-0.00098
836525625,-0.02052,1.00381,-0.00082,-0.07617,1.01270,-0.00391
836530471,-0.02742,1.00495,0.00332,-0.08301,1.01367,0.00000
836535316,-0.02250,1.00294,0.00610,-0.07813,1.01172,0.00293
836539956,-0.02371,0.99607,0.00219,-0.07910,1.00488,-0.00098
836544805,-0.02434,1.00789,0.00814,-0.08008,1.01660,0.00488
836549642,-0.02454,1.00193,0.00028,-0.08008,1.01074,-0.00293
836554484,-0.02257,1.00096,0.00315,-0.07813,1.00977,0.00000
836559323,-0.02322,1.01274,0.00616,-0.07910,1.02148,0.00293
836564158,-0.02745,1.00397,0.00332,-0.08301,1.01270,0.00000
836568986,-0.01853,1.00380,0.00108,-0.07422,1.01270,-0.00195
836573824,-0.02257,1.00097,0.00413,-0.07813,1.00977,0.00098
836578457,-0.01874,0.99599,0.00203,-0.07422,1.00488,-0.00098
836583265,-0.02355,1.00099,0.00514,-0.07910,1.00977,0.00195
836588084,-0.01972,0.99604,0.00500,-0.07520,1.00488,0.00195
836592903,-0.02449,1.00297,0.00518,-0.08008,1.01172,0.00195
836597723,-0.01851,1.00385,0.00500,-0.07422,1.01270,0.00195
836602551,-0.02231,1.00888,0.01200,-0.07813,1.01758,0.00879
836607369,-0.02344,1.00491,0.00516,-0.07910,1.01367,0.00195
836612188,-0.02063,0.99900,0.00602,-0.07617,1.00781,0.00293
836617006,-0.02461,0.99903,0.00321,-0.08008,1.00781,0.00000
836621634,-0.02150,1.00387,0.00313,-0.07715,1.01270,0.00000
836626450,-0.01747,1.00576,0.00301,-0.07324,1.01465,0.00000
836631285,-0.02258,1.00002,0.00707,-0.07813,1.00879,0.00391
836636116,-0.02135,1.00879,0.00511,-0.07715,1.01758,0.00195
836640948,-0.01986,0.99115,0.00499,-0.07520,1.00000,0.00195
836645781,-0.02327,1.01078,0.00616,-0.07910,1.01953,0.00293
836650624,-0.02156,1.00191,0.00215,-0.07715,1.01074,-0.00098
836655454,-0.02839,1.00594,0.00336,-0.08398,1.01465,0.00000
836660081,-0.02071,0.99606,0.00601,-0.07617,1.00488,0.00293
836664922,-0.02354,1.00195,0.00319,-0.07910,1.01074,0.00000
836669761,-0.02477,0.99318,0.00515,-0.08008,1.00195,0.00195
836674603,-0.01938,1.00779,0.00602,-0.07520,1.01660,0.00293
836679435,-0.01662,0.99992,0.00688,-0.07227,1.00879,0.00391
836684271,-0.02240,1.00683,0.00415,-0.07813,1.01563,0.00098
836689106,-0.02388,0.99018,0.00021,-0.07910,0.99902,-0.00293
836693944,-0.02054,1.00287,0.00212,-0.07617,1.01172,-0.00098
836698587,-0.02048,1.00482,0.00212,-0.07617,1.01367,-0.00098
836703433,-0.02351,1.00293,0.00319,-0.07910,1.01172,0.00000
836708271,-0.01742,1.00770,0.00106,-0.07324,1.01660,-0.00195
836713113,-0.02154,1.00195,0.00606,-0.07715,1.01074,0.00293
836717936,-0.02622,1.01274,0.00136,-0.08203,1.02148,-0.00195
836722781,-0.02158,1.00001,0.00802,-0.07715,1.00879,0.00488
836727624,-0.02458,1.00003,0.00517,-0.08008,1.00879,0.00195
836732451,-0.01930,1.01073,0.00701,-0.07520,1.01953,0.00391
836737294,-0.01858,1.00093,0.00695,-0.07422,1.00977,0.00391
836741931,-0.02948,1.00208,0.00632,-0.08496,1.01074,0.00293
836746773,-0.02461,0.99812,0.00908,-0.08008,1.00684,0.00586
836751605,-0.01372,0.99696,0.00873,-0.06934,1.00586,0.00586
836756441,-0.01668,0.99797,0.00687,-0.07227,1.00684,0.00391
836761276,-0.02372,0.99512,0.00512,-0.07910,1.00391,0.00195
836766117,-0.02567,0.99616,0.00715,-0.08105,1.00488,0.00391
836770953,-0.02147,1.00394,0.00901,-0.07715,1.01270,0.00586
836775794,-0.02130,1.00980,0.00805,-0.07715,1.01855,0.00488
836780425,-0.02639,1.00593,0.00526,-0.08203,1.01465,0.00195
836785265,-0.02348,1.00392,0.00417,-0.07910,1.01270,0.00098
836790097,-0.02214,1.01566,0.00614,-0.07813,1.02441,0.00293
836794933,-0.02521,1.01276,0.00525,-0.08105,1.02148,0.00195
836799777,-0.02547,1.00394,0.00326,-0.08105,1.01270,0.00000
836804614,-0.02146,1.00487,0.00509,-0.07715,1.01367,0.00195
836809446,-0.02069,0.99702,0.00406,-0.07617,1.00586,0.00098
836814288,-0.02155,1.00193,0.00411,-0.07715,1.01074,0.00098
836818925,-0.02040,1.00682,0.00605,-0.07617,1.01563,0.00293
836823767,-0.02248,1.00391,0.00512,-0.07813,1.01270,0.00195
836828598,-0.02057,1.00097,0.00701,-0.07617,1.00977,0.00391
836833438,-0.01964,0.99896,0.00403,-0.07520,1.00781,0.00098
836838278,-0.02075,0.99506,0.00405,-0.07617,1.00391,0.00098
836843118,-0.02063,0.99900,0.00602,-0.07617,1.00781,0.00293
836847955,-0.02342,1.00495,0.00908,-0.07910,1.01367,0.00586
836852796,-0.02164,0.99806,0.00801,-0.07715,1.00684,0.00488
836857634,-0.02351,1.00293,0.00319,-0.07910,1.01172,0.00000
836862277,-0.02369,0.99702,-0.00075,-0.07910,1.00586,-0.00391
836867118,-0.02149,1.00298,0.01097,-0.07715,1.01172,0.00781
836871966,-0.02355,1.00100,0.00612,-0.07910,1.00977,0.00293
836876799,-0.02530,1.00981,0.00328,-0.08105,1.01855,0.00000
836881632,-0.02136,1.00875,0.00217,-0.07715,1.01758,-0.00098
836886480,-0.02046,1.00487,0.00604,-0.07617,1.01367,0.00293
836891322,-0.02077,0.99502,0.00013,-0.07617,1.00391,-0.00293
836896168,-0.02248,1.00299,0.01002,-0.07813,1.01172,0.00684
836900811,-0.02456,1.00098,0.00224,-0.08008,1.00977,-0.00098
836905633,-0.01872,0.99605,0.00791,-0.07422,1.00488,0.00488
836910468,-0.01964,0.99898,0.00599,-0.07520,1.00781,0.00293
836915305,-0.02343,1.00585,0.00222,-0.07910,1.01465,-0.00098
836920144,-0.02360,0.99997,0.00122,-0.07910,1.00879,-0.00195
836924984,-0.02167,0.99891,-0.00374,-0.07715,1.00781,-0.00684
836929819,-0.01855,1.00192,0.00793,-0.07422,1.01074,0.00488
836934663,-0.02457,1.00005,0.00713,-0.08008,1.00879,0.00391
836939293,-0.02248,1.00391,0.00512,-0.07813,1.01270,0.00195
836944135,-0.02343,1.00585,0.00222,-0.07910,1.01465,-0.00098
836948981,-0.02543,1.00494,0.00522,-0.08105,1.01367,0.00195
836953819,-0.01934,1.00880,0.00896,-0.07520,1.01758,0.00586
836958664,-0.02176,0.99503,-0.00082,-0.07715,1.00391,-0.00391
836963504,-0.02364,0.99713,0.01003,-0.07910,1.00586,0.00684
836968337,-0.02846,1.00303,0.00531,-0.08398,1.01172,0.00195
836973172,-0.02434,1.00880,0.00226,-0.08008,1.01758,-0.00098
836978013,-0.02342,1.00586,0.00320,-0.07910,1.01465,0.00000
836982643,-0.01652,1.00381,0.00493,-0.07227,1.01270,0.00195
836987482,-0.02058,1.00094,0.00505,-0.07617,1.00977,0.00195
836992319,-0.02139,1.00686,0.00804,-0.07715,1.01563,0.00488
836997156,-0.02056,1.00189,0.00211,-0.07617,1.01074,-0.00098
837002098,-0.01945,1.00580,0.00308,-0.07520,1.01465,0.00000
837006931,-0.02453,1.00197,0.00322,-0.08008,1.01074,0.00000
837011761,-0.02540,1.00684,0.00033,-0.08105,1.01563,-0.00293
837016601,-0.02242,1.00587,0.00513,-0.07813,1.01465,0.00195
837021239,-0.02645,1.00305,0.01014,-0.08203,1.01172,0.00684
837026074,-0.01980,0.99311,0.00597,-0.07520,1.00195,0.00293
837030914,-0.02061,0.99994,0.00309,-0.07617,1.00879,0.00000
837035753,-0.02143,1.00586,0.00608,-0.07715,1.01465,0.00293
837040588,-0.01944,1.00583,0.00601,-0.07520,1.01465,0.00293
837045416,-0.02160,0.99998,0.00508,-0.07715,1.00879,0.00195
837050259,-0.02445,1.00488,0.00127,-0.08008,1.01367,-0.00195
837055106,-0.01337,1.00964,0.00584,-0.06934,1.01855,0.00293
837059939,-0.02660,0.99906,0.00327,-0.08203,1.00781,0.00000
837064564,-0.02245,1.00490,0.00611,-0.07813,1.01367,0.00293
837069404,-0.02756,1.00007,0.00429,-0.08301,1.00879,0.00098
837074244,-0.02262,0.99901,0.00413,-0.07813,1.00781,0.00098
837079076,-0.02459,1.00000,0.00223,-0.08008,1.00879,-0.00098
837083921,-0.02466,0.99709,0.00418,-0.08008,1.00586,0.00098
837088765,-0.02346,1.00395,0.00711,-0.07910,1.01270,0.00391
837093602,-0.01533,1.01065,0.00590,-0.07129,1.01953,0.00293
837098453,-0.02463,0.99808,0.00517,-0.08008,1.00684,0.00195
837103092,-0.02238,1.00780,0.00318,-0.07813,1.01660,0.00000
837107923,-0.02549,1.00296,0.00325,-0.08105,1.01172,0.00000
837112750,-0.02445,1.00397,0.00715,-0.08008,1.01270,0.00391
837117595,-0.02333,1.00973,-0.00070,-0.07910,1.01855,-0.00391
837122442,-0.02187,0.99114,0.00113,-0.07715,1.00000,-0.00195
837127278,-0.02554,1.00103,0.00521,-0.08105,1.00977,0.00195
837132126,-0.02246,1.00487,0.00317,-0.07813,1.01367,0.00000
837136958,-0.02255,1.00192,0.00218,-0.07813,1.01074,-0.00098
837141599,-0.02232,1.00883,0.00808,-0.07813,1.01758,0.00488
837146445,-0.02273,0.99419,0.01097,-0.07813,1.00293,0.00781
837151277,-0.02473,0.99327,0.01299,-0.08008,1.00195,0.00977
837156119,-0.02642,1.00588,0.00036,-0.08203,1.01465,-0.00293
837160959,-0.02616,1.01470,0.00235,-0.08203,1.02344,-0.00098
837165790,-0.02362,0.99809,0.00807,-0.07910,1.00684,0.00488
837170631,-0.02300,0.98535,0.00702,-0.07813,0.99414,0.00391
837175465,-0.02255,1.00192,0.00218,-0.07813,1.01074,-0.00098
837180297,-0.01813,1.01752,0.00308,-0.07422,1.02637,0.00000
837184936,-0.01979,0.99405,0.00206,-0.07520,1.00293,-0.00098
837189781,-0.02187,0.99021,0.00603,-0.07715,0.99902,0.00293
837194623,-0.02379,0.99222,0.00805,-0.07910,1.00098,0.00488
837199464,-0.03605,1.01677,-0.00223,-0.09180,1.02539,-0.00586
837204315,-0.01971,0.99790,-0.00381,-0.07520,1.00684,-0.00684
837209161,-0.01630,1.01256,0.00006,-0.07227,1.02148,-0.00293
837214008,-0.02292,0.98826,0.00507,-0.07813,0.99707,0.00195
837218854,-0.02235,1.00695,0.01493,-0.07813,1.01563,0.01172
837223480,-0.02140,1.00683,0.00510,-0.07715,1.01563,0.00195
837228319,-0.02155,1.00193,0.00411,-0.07715,1.01074,0.00098
837233155,-0.01575,0.99597,0.00488,-0.07129,1.00488,0.00195
837238002,-0.02932,1.00793,0.00438,-0.08496,1.01660,0.00098
837242836,-0.01656,1.00281,0.00297,-0.07227,1.01172,0.00000
837247680,-0.01883,0.99213,0.00692,-0.07422,1.00098,0.00391
837252513,-0.01686,0.99299,-0.00098,-0.07227,1.00195,-0.00391
837257355,-0.01741,1.00682,0.00987,-0.07324,1.01563,0.00684
837261991,-0.01951,1.00292,0.00796,-0.07520,1.01172,0.00488
837266831,-0.02459,1.00000,0.00223,-0.08008,1.00879,-0.00098
837271672,-0.02752,1.00199,0.00136,-0.08301,1.01074,-0.00195
837276517,-0.01865,0.99894,0.00400,-0.07422,1.00781,0.00098
837281347,-0.02257,1.00096,0.00315,-0.07813,1.00977,0.00000
837286192,-0.01873,0.99602,0.00497,-0.07422,1.00488,0.00195
837291034,-0.02374,0.99508,0.00121,-0.07910,1.00391,-0.00195
837295877,-0.02534,1.00788,0.00621,-0.08105,1.01660,0.00293
837300722,-0.01670,0.99791,0.00197,-0.07227,1.00684,-0.00098
837305356,-0.02545,1.00488,0.00032,-0.08105,1.01367,-0.00293
837310194,-0.02451,1.00292,0.00126,-0.08008,1.01172,-0.00195
837315036,-0.01955,1.00192,0.00600,-0.07520,1.01074,0.00293
837319871,-0.01860,1.00089,0.00303,-0.07422,1.00977,0.00000
837324712,-0.02546,1.00395,0.00424,-0.08105,1.01270,0.00098
837329559,-0.02038,1.00779,0.00507,-0.07617,1.01660,0.00195
837334399,-0.02449,1.00115,0.01791,-0.08008,1.00977,0.01465
837339234,-0.01780,0.99404,0.00395,-0.07324,1.00293,0.00098
837343872,-0.02369,0.99703,0.00023,-0.07910,1.00586,-0.00293
837348706,-0.02240,1.00682,0.00317,-0.07813,1.01563,0.00000
837353537,-0.01940,1.00775,0.00308,-0.07520,1.01660,0.00000
837358378,-0.02141,1.00589,0.00902,-0.07715,1.01465,0.00586
837363219,-0.02156,1.00190,0.00117,-0.07715,1.01074,-0.00195
837368061,-0.02063,0.99991,0.00015,-0.07617,1.00879,-0.00293
837372905,-0.02060,0.99997,0.00505,-0.07617,1.00879,0.00195
837377746,-0.02039,1.00777,0.00311,-0.07617,1.01660,0.00000
837382368,-0.02285,0.99025,0.00802,-0.07813,0.99902,0.00488
837387202,-0.02457,1.00004,0.00615,-0.08008,1.00879,0.00293
837392037,-0.02516,1.01469,0.00231,-0.08105,1.02344,-0.00098
837396884,-0.02252,1.00291,0.00316,-0.07813,1.01172,0.00000
837401724,-0.02733,1.00698,0.01019,-0.08301,1.01563,0.00684
837406568,-0.02355,1.00193,0.00123,-0.07910,1.01074,-0.00195
837411413,-0.01659,1.00182,0.00199,-0.07227,1.01074,-0.00098
837416263,-0.02553,1.00106,0.00815,-0.08105,1.00977,0.00488
837421111,-0.03253,1.00013,0.00249,-0.08789,1.00879,-0.00098
837425739,-0.03504,1.01771,-0.00422,-0.09082,1.02637,-0.00781
837430582,-0.02219,1.01464,0.00222,-0.07813,1.02344,-0.00098
837435425,-0.02270,0.99518,0.01195,-0.07813,1.00391,0.00879
837440262,-0.03176,0.99320,-0.00345,-0.08691,1.00195,-0.00684
837445095,-0.02810,1.01667,0.00046,-0.08398,1.02539,-0.00293
837449937,-0.01747,1.00484,0.00791,-0.07324,1.01367,0.00488
837454782,-0.02058,1.00003,0.01092,-0.07617,1.00879,0.00781
837459625,-0.02346,1.00395,0.00711,-0.07910,1.01270,0.00391
837464263,-0.02758,0.99819,0.01114,-0.08301,1.00684,0.00781
837469093,-0.01881,0.99217,0.01084,-0.07422,1.00098,0.00781
837473933,-0.02229,1.00982,0.00906,-0.07813,1.01855,0.00586
837478780,-0.01957,1.00096,0.00796,-0.07520,1.00977,0.00488
837483623,-0.02362,0.99809,0.00807,-0.07910,1.00684,0.00488
837488456,-0.02029,1.01075,0.00704,-0.07617,1.01953,0.00391
837493284,-0.02258,1.00094,0.00217,-0.07813,1.00977,-0.00098
837498125,-0.02639,1.00686,0.00036,-0.08203,1.01563,-0.00293
837502752,-0.02323,1.01272,0.00420,-0.07910,1.02148,0.00098
837507592,-0.02454,1.00103,0.00714,-0.08008,1.00977,0.00391
837512427,-0.01951,1.00384,0.00307,-0.07520,1.01270,0.00000
837517255,-0.02552,1.00198,0.00325,-0.08105,1.01074,0.00000
837522093,-0.02375,0.99415,0.00512,-0.07910,1.00293,0.00195
837526935,-0.02752,1.00014,0.01115,-0.08301,1.00879,0.00781
837531781,-0.02557,0.99821,0.01597,-0.08105,1.00684,0.01270
837536623,-0.02631,1.00794,0.01016,-0.08203,1.01660,0.00684
837541471,-0.02069,0.99519,0.01581,-0.07617,1.00391,0.01270
837546111,-0.02349,1.00296,0.00613,-0.07910,1.01172,0.00293
837550951,-0.02171,0.99607,0.00507,-0.07715,1.00488,0.00195
837555786,-0.02072,0.99696,-0.00182,-0.07617,1.00586,-0.00488
837560630,-0.02256,1.00189,-0.00076,-0.07813,1.01074,-0.00391
837565468,-0.02438,1.00688,0.00520,-0.08008,1.01563,0.00195
837570310,-0.02446,1.00487,0.00029,-0.08008,1.01367,-0.00293
837575140,-0.02448,1.00390,0.00127,-0.08008,1.01270,-0.00195
837579972,-0.02462,0.99810,0.00713,-0.08008,1.00684,0.00391
837584597,-0.02181,0.99310,0.00212,-0.07715,1.00195,-0.00098
837589441,-0.02355,1.00009,0.01200,-0.07910,1.00879,0.00879
837594288,-0.01869,0.99703,0.00791,-0.07422,1.00586,0.00488
837599128,-0.02762,0.99626,0.01407,-0.08301,1.00488,0.01074
837603976,-0.01930,1.00981,0.01191,-0.07520,1.01855,0.00879
837608821,-0.02760,0.99722,0.01212,-0.08301,1.00586,0.00879
837613664,-0.02355,1.00099,0.00514,-0.07910,1.00977,0.00195
837618504,-0.02239,1.00685,0.00513,-0.07813,1.01563,0.00195
837623137,-0.02034,1.00973,0.00312,-0.07617,1.01855,0.00000
837627977,-0.02779,0.99223,0.00328,-0.08301,1.00098,0.00000
837632814,-0.03158,0.99910,-0.00049,-0.08691,1.00781,-0.00391
837637654,-0.02080,0.99312,0.00502,-0.07617,1.00195,0.00195
837642501,-0.01972,0.99605,0.00598,-0.07520,1.00488,0.00293
837647339,-0.02236,1.00783,0.00612,-0.07813,1.01660,0.00293
837652182,-0.02277,0.99411,0.00313,-0.07813,1.00293,0.00000
837657019,-0.02346,1.00396,0.00809,-0.07910,1.01270,0.00488
837661866,-0.01636,1.00877,0.01083,-0.07227,1.01758,0.00781
837666502,-0.01879,0.99406,0.00496,-0.07422,1.00293,0.00195
837671350,-0.02268,0.99705,0.00412,-0.07813,1.00586,0.00098
837676196,-0.01855,1.00285,0.00303,-0.07422,1.01172,0.00000
837681023,-0.02056,1.00190,0.00309,-0.07617,1.01074,0.00000
837685855,-0.02349,1.00296,0.00613,-0.07910,1.01172,0.00293
837690696,-0.02541,1.00590,0.00326,-0.08105,1.01465,0.00000
837695534,-0.02540,1.00683,-0.00065,-0.08105,1.01563,-0.00391
837700370,-0.02147,1.00485,0.00314,-0.07715,1.01367,0.00000
837705005,-0.01869,0.99794,0.00204,-0.07422,1.00684,-0.00098
837709843,-0.02448,1.00300,0.00812,-0.08008,1.01172,0.00488
837714682,-0.02254,1.00193,0.00316,-0.07813,1.01074,0.00000
837719524,-0.02037,1.00781,0.00703,-0.07617,1.01660,0.00391
837724365,-0.02657,1.00005,0.00426,-0.08203,1.00879,0.00098
837729202,-0.02060,0.99997,0.00505,-0.07617,1.00879,0.00195
837734039,-0.02164,0.99806,0.00801,-0.07715,1.00684,0.00488
837738883,-0.02134,1.00972,0.00119,-0.07715,1.01855,-0.00195
837743508,-0.02067,0.99800,0.00406,-0.07617,1.00684,0.00098
837748347,-0.02156,1.00099,0.00802,-0.07715,1.00977,0.00488
837753190,-0.02368,0.99705,0.00219,-0.07910,1.00586,-0.00098
837758033,-0.02442,1.00588,0.00323,-0.08008,1.01465,0.00000
837762873,-0.02384,0.99119,0.00315,-0.07910,1.00000,0.00000
837767704,-0.02558,1.00002,0.00227,-0.08105,1.00879,-0.00098
837772537,-0.02657,1.00004,0.00328,-0.08203,1.00879,0.00000
837777373,-0.02162,0.99993,0.00018,-0.07715,1.00879,-0.00293
837782217,-0.02558,1.00003,0.00325,-0.08105,1.00879,0.00000
837786847,-0.02043,1.00586,0.00703,-0.07617,1.01465,0.00391
837791688,-0.02439,1.00502,0.01401,-0.08008,1.01367,0.01074
837796527,-0.02150,1.00202,0.01292,-0.07715,1.01074,0.00977
837801371,-0.01763,0.99992,0.00495,-0.07324,1.00879,0.00195
837806212,-0.02547,1.00300,0.00717,-0.08105,1.01172,0.00391
837811056,-0.02340,1.00684,0.00320,-0.07910,1.01563,0.00000
837815895,-0.02266,0.99801,0.00216,-0.07813,1.00684,-0.00098
837820731,-0.01965,0.99895,0.00305,-0.07520,1.00781,0.00000
837825354,-0.02254,1.00193,0.00316,-0.07813,1.01074,0.00000
837830192,-0.01853,1.00288,0.00597,-0.07422,1.01172,0.00293
837835016,-0.01759,1.00184,0.00202,-0.07324,1.01074,-0.00098
837839856,-0.01958,1.00093,0.00502,-0.07520,1.00977,0.00195
837844698,-0.02575,0.99415,0.00225,-0.08105,1.00293,-0.00098
837849538,-0.02461,0.99903,0.00321,-0.08008,1.00781,0.00000
837854375,-0.03528,1.00710,0.00946,-0.09082,1.01563,0.00586
837859216,-0.04840,0.99951,0.01181,-0.10352,1.00781,0.00781
837863845,-0.03659,0.99634,0.00750,-0.09180,1.00488,0.00391
837868676,-0.51954,0.30900,0.32951,-0.54883,0.30762,0.31250
837873503,0.30430,1.02826,-0.14819,0.24316,1.04395,-0.14063
837878349,-0.27736,0.97661,0.26293,-0.32910,0.97852,0.25098
837883187,-0.07983,1.11280,0.03484,-0.13770,1.12012,0.02930
837888021,0.12378,0.95108,-0.04677,0.06738,0.96289,-0.04492
837892864,0.01679,0.96157,-0.05019,-0.03809,0.97168,-0.05176
837897699,-0.00989,1.03544,-0.04609,-0.06641,1.04492,-0.04883
837902535,0.12394,0.97384,0.06599,0.06641,0.98438,0.06738
837907166,0.02996,1.00541,-0.04846,-0.02637,1.01563,-0.04980
837912009,-0.13198,0.99451,-0.20992,-0.18457,1.00391,-0.21582
837916836,-0.09648,1.15569,-0.18293,-0.15430,1.16504,-0.18848
837921680,-0.05232,1.03215,0.03754,-0.10840,1.04004,0.03320
837926508,0.39000,0.92105,0.37182,0.32813,0.93262,0.38086
837931346,-0.06636,0.88252,0.29208,-0.11914,0.88770,0.28711
837936189,-0.62904,1.02936,-0.52907,-0.67285,1.03418,-0.54980
837941039,-0.55341,1.18400,-0.59254,-0.60254,1.19043,-0.61133
837945678,0.99167,0.78296,0.53240,0.92285,0.80273,0.56055
837950515,1.13768,0.93753,1.09961,1.05957,0.95313,1.12988
837955351,-0.84320,1.01651,-0.14316,-0.88477,1.01367,-0.17188
837960200,-2.16805,0.70311,-1.22228,-2.17383,0.69141,-1.28809
837965048,0.29820,1.54974,-0.60920,0.22461,1.56934,-0.60254
837969886,2.31873,0.98439,1.04370,2.21973,1.01953,1.11133
837974729,1.05481,1.39502,0.75834,0.96680,1.41211,0.78516
837979579,-1.98126,0.86177,-0.66810,-1.99707,0.84668,-0.73047
837984422,-1.30728,0.64037,-1.12643,-1.32617,0.64160,-1.16504
837989059,0.73467,1.83954,-0.57774,0.64551,1.86523,-0.55859
837993902,1.71025,1.02327,0.66051,1.62207,1.05273,0.70996
837998748,0.06427,0.39022,0.65227,0.02148,0.39453,0.65234
838003685,-1.51843,-1.03454,0.73075,-1.49512,-1.05371,0.68652
838008536,-0.84643,2.20743,0.21275,-0.92285,2.19824,0.17773
838013373,0.91338,2.80638,-0.31085,0.79297,2.83008,-0.29102
838018211,1.37955,1.06827,-0.71612,1.30176,1.10742,-0.67285
838023054,0.85375,-0.18884,-0.57054,0.81934,-0.15723,-0.53906
838027692,-1.17988,0.28048,0.32586,-1.19727,0.26855,0.28809
838032531,-1.54044,1.05345,0.94803,-1.57617,1.02734,0.89355
838037367,0.49356,1.17705,0.13448,0.42383,1.19238,0.14648
838042195,1.46745,0.39919,-0.56597,1.40625,0.43945,-0.51758
838047044,-0.60578,1.74730,-0.34354,-0.67090,1.74902,-0.36719
838051884,-1.26263,2.08195,0.11570,-1.32813,2.06738,0.06836
838056733,0.22532,0.63598,0.01235,0.17578,0.64941,0.01855
838061562,1.10971,0.51938,-0.48356,1.05078,0.55273,-0.44727
838066199,0.55966,0.50527,-0.34957,0.50977,0.52832,-0.33105
838071036,-1.03305,0.74829,0.63768,-1.06738,0.73438,0.60156
838075875,-0.77405,1.62447,0.34122,-0.83594,1.61621,0.31055
838080719,1.12374,1.04387,-0.46316,1.04980,1.07617,-0.42871
838085561,0.78327,0.67823,-0.30989,0.72461,0.70410,-0.28516
838090387,-1.14971,1.41885,0.49041,-1.20020,1.40332,0.44824
838095228,-0.82368,1.29838,0.42469,-0.87598,1.28906,0.39355
838100074,0.72745,0.71426,-0.14042,0.66797,0.73730,-0.11816
838104910,0.92312,0.29163,-0.55698,0.87402,0.32324,-0.52539
838109539,-0.12285,1.12739,-0.12539,-0.17969,1.13574,-0.13184
838114387,-1.14907,1.22188,0.55422,-1.19434,1.20605,0.51270
838119221,0.03112,1.18088,-0.01836,-0.03027,1.19043,-0.02051
838124064,1.10647,0.62172,-0.52515,1.04492,0.65527,-0.48926
838128915,0.06703,1.22002,-0.23292,0.00488,1.23242,-0.23340
838133753,-1.40831,1.07307,0.61178,-1.44531,1.05273,0.56250
838138601,-0.15698,1.36614,0.26860,-0.22168,1.36914,0.25879
838143440,1.05473,0.74298,-0.42992,0.99023,0.77441,-0.39648
838148077,0.51155,0.80588,-0.57994,0.45508,0.83008,-0.56348
838152920,-0.99617,1.02791,0.22425,-1.03711,1.01855,0.18945
838157768,-0.78038,1.62414,0.48054,-0.84277,1.61426,0.44922
838162612,0.58365,0.75487,-0.12883,0.52539,0.77539,-0.11133
838167452,1.06780,0.47248,-0.45010,1.01074,0.50488,-0.41504
838172290,-0.90927,1.23209,0.14398,-0.95703,1.22461,0.11133
838177136,-0.96766,1.66685,0.52978,-1.02832,1.65332,0.49219
838181976,0.32537,0.93790,0.03005,0.26563,0.95215,0.03809
838186813,1.29836,0.39021,-0.56260,1.24023,0.42773,-0.51953
838191447,-0.37745,1.03535,-0.05989,-0.42773,1.03906,-0.07422
838196294,-1.10351,1.24054,0.62731,-1.15039,1.22461,0.58691
838201146,-0.44639,1.10400,0.29823,-0.49902,1.10254,0.28027
838205989,0.96326,0.54708,-0.31518,0.90527,0.57617,-0.28418
838210823,0.64267,0.93010,-0.48071,0.58008,0.95508,-0.46094
838215666,-1.13193,1.09694,0.51885,-1.17383,1.08203,0.47852
838220510,-0.77416,1.56112,0.27531,-0.83398,1.55371,0.24512
838225354,0.87444,0.46468,-0.10794,0.81934,0.49023,-0.08008
838229984,0.95756,0.59991,-0.59106,0.89941,0.63184,-0.55957
838234823,-0.86966,0.98980,0.32588,-0.91211,0.98145,0.29492
838239658,-0.81936,1.77324,0.36680,-0.88477,1.76367,0.33398
838244498,0.41010,0.54414,-0.05955,0.36035,0.56152,-0.04688
838249330,1.18259,0.62340,-0.61672,1.12012,0.65918,-0.57813
838254171,-0.13522,1.03143,-0.06074,-0.18945,1.03906,-0.06738
838259019,-0.98341,1.53482,0.51306,-1.04004,1.52148,0.47559
838263865,-0.19170,0.89313,0.18246,-0.24219,0.89746,0.17383
838268498,1.24702,0.63081,-0.47079,1.18262,0.66602,-0.43066
838273336,0.18909,0.95276,-0.33198,0.13281,0.96875,-0.32715
838278174,-1.10290,1.45180,0.53022,-1.15527,1.43652,0.48926
838283025,-0.57626,1.32324,0.29055,-0.63281,1.31934,0.26758
838287865,1.00789,0.62214,-0.36428,0.94727,0.65234,-0.33203
838292704,0.56768,0.70148,-0.46950,0.51270,0.72559,-0.45117
838297545,-0.79346,1.29846,0.29832,-0.84570,1.29102,0.26855
838302386,-1.06094,1.71921,0.43793,-1.12109,1.70508,0.39746
838307225,0.55324,0.67207,0.03834,0.49707,0.69043,0.05469
838311852,1.17387,0.45350,-0.59659,1.11621,0.48926,-0.55762
838316697,-0.41322,1.08066,0.09329,-0.46484,1.08203,0.07715
838321542,-1.13844,1.71207,0.47661,-1.19727,1.69629,0.43359
838326385,0.11600,0.80479,0.25363,0.06250,0.81348,0.25488
838331223,1.13156,0.45687,-0.52959,1.07422,0.49121,-0.49219
838336066,0.06552,0.97378,-0.11439,0.00977,0.98535,-0.11426
838340907,-1.08305,1.54018,0.40945,-1.13770,1.52637,0.36914
838345755,-0.65132,0.91203,0.33723,-0.69531,0.90723,0.31348
838350386,1.19302,0.67191,-0.37191,1.12793,0.70508,-0.33398
838355220,0.62673,0.49313,-0.37624,0.57617,0.51758,-0.35547
838360066,-1.11966,1.32390,0.26470,-1.16699,1.31152,0.22461
838364908,-0.75524,1.43521,0.42114,-0.81250,1.42676,0.39160
838369751,0.71989,0.76692,-0.16837,0.65918,0.79004,-0.14648
838374587,0.84765,0.37738,-0.43372,0.79688,0.40625,-0.40527
838379437,-0.83853,1.35178,0.09815,-0.89063,1.34570,0.06738
838384283,-1.03183,1.62027,0.47087,-1.08984,1.60645,0.43164
838388919,0.08387,1.01847,0.15073,0.02539,1.02734,0.15039
838393749,1.22303,0.32771,-0.57321,1.16797,0.36426,-0.53223
838398599,0.18356,1.06403,-0.27647,0.12402,1.07910,-0.27246
838403439,-1.27114,1.37026,0.52052,-1.31836,1.35254,0.47461
838408282,-0.24666,1.28545,0.27405,-0.30762,1.28711,0.26172
838413113,0.94105,0.48119,-0.19914,0.88477,0.50879,-0.16895
838417941,0.33706,0.89198,-0.39181,0.28027,0.91113,-0.38184
838422781,-1.30874,1.34325,0.50102,-1.35449,1.32520,0.45410
838427616,-0.58151,1.50920,0.37479,-0.64355,1.50391,0.35059
838432240,0.61442,0.75255,-0.11708,0.55566,0.77344,-0.09863
838437078,1.06830,0.36847,-0.56421,1.01465,0.40234,-0.52832
838441919,-0.84623,1.19930,0.01349,-0.89355,1.19434,-0.01660
838446764,-0.81461,1.75071,0.46061,-0.87988,1.74023,0.42773
838451608,0.40766,0.93448,0.01763,0.34668,0.95020,0.02832
838456443,1.13048,0.31040,-0.50372,1.07715,0.34473,-0.46582
838461291,-0.53742,1.18120,-0.11200,-0.58887,1.18262,-0.13184
838466128,-0.98171,1.56021,0.51115,-1.03906,1.54688,0.47363
838470770,0.02803,1.06864,0.00379,-0.03027,1.07813,0.00195
838475607,0.78671,0.17905,-0.13870,0.74121,0.20410,-0.11230
838480438,0.32711,0.78921,-0.40858,0.27344,0.80859,-0.39844
838485281,-1.26060,1.27958,0.56584,-1.30566,1.26172,0.52051
838490128,-0.70123,1.72513,0.43633,-0.76758,1.71680,0.40723
838494967,0.90300,0.41017,-0.03952,0.84863,0.43555,-0.01074
838499794,1.10027,0.52344,-0.83987,1.04297,0.56055,-0.80273
838504637,-1.16896,0.94003,0.34399,-1.20508,0.92676,0.30371
838509478,-0.16701,2.15293,0.34771,-0.25391,2.15332,0.33398
838514114,0.54318,0.52426,-0.15890,0.49219,0.54492,-0.14160
838518942,0.74078,0.68491,-0.74351,0.68457,0.71484,-0.71875
838523790,-0.66701,1.13909,0.05065,-0.71582,1.13672,0.02637
838528639,-1.28360,1.57079,0.67460,-1.33691,1.55078,0.62695
838533477,-0.35705,1.20084,0.33696,-0.41406,1.20020,0.32129
838538307,1.17763,0.41959,-0.64878,1.12109,0.45605,-0.60938
838543151,0.30870,1.06441,-0.50284,0.24805,1.08398,-0.49414
838547996,-0.94062,1.91019,0.36340,-1.00781,1.89844,0.32617
838552638,0.47984,1.20606,-0.00605,0.41016,1.22266,0.00586
838557460,0.76841,0.54591,0.09368,0.71191,0.56738,0.11719
838562284,0.28776,0.55151,0.07565,0.23926,0.56543,0.08398
838567126,-0.67417,1.41989,0.21471,-0.73145,1.41504,0.18848
838571972,-1.18485,2.17155,0.28016,-1.25488,2.15625,0.23438
838576813,0.45769,0.79144,0.34168,0.39844,0.80469,0.35352
838581642,1.18465,0.40774,-0.55989,1.12793,0.44336,-0.52051
838586488,-0.03334,1.54736,0.11163,-0.10449,1.55371,0.10547
838591329,-1.66567,1.46715,0.29929,-1.70801,1.44531,0.24121
838595966,0.26192,0.93728,0.05851,0.20313,0.95020,0.06445
838600784,1.52183,0.33973,-0.46508,1.46094,0.37988,-0.41504
838605608,0.10491,0.81878,-0.09180,0.05273,0.83105,-0.08984
838610426,-0.84049,1.69747,0.56506,-0.90430,1.68555,0.53125
838615251,-0.53002,1.25569,0.17710,-0.58496,1.25391,0.15625
838620063,2.10788,0.77087,-0.97564,2.02734,0.82520,-0.90723
838624884,0.20265,0.66600,-0.13866,0.15332,0.68066,-0.13281
838629711,-0.81414,1.57391,0.57937,-0.87500,1.56250,0.54688
838634351,-1.11072,1.66114,0.77923,-1.16992,1.64258,0.73633
838639184,1.22647,1.11323,-0.14477,1.14746,1.14355,-0.10840
838644032,-0.08526,-0.26117,0.01644,-0.10449,-0.25098,0.01660
838648883,-0.19946,1.39655,0.56890,-0.26563,1.39551,0.55664
838653730,-1.86294,1.33339,0.57050,-1.89941,1.30566,0.50586
838658576,0.54200,1.06057,0.38032,0.47363,1.07422,0.39355
838663413,0.44039,0.57503,-0.58748,0.39160,0.59863,-0.57227
838668258,0.08470,1.35419,-0.46413,0.01953,1.36914,-0.46387
838672900,-1.32757,1.43330,-0.05841,-1.37305,1.42090,-0.10449
838677736,0.35445,1.26313,0.46160,0.28320,1.27246,0.46777
838682570,1.04956,0.28308,-0.43661,0.99805,0.31543,-0.40137
838687415,1.94090,1.02361,-0.39416,1.85352,1.06836,-0.33398
838692269,-1.57399,1.25799,0.36702,-1.61230,1.23730,0.31250
838697100,0.03838,1.28477,0.27479,-0.02734,1.29102,0.27148
838701940,0.91156,0.90480,-0.16211,0.84375,0.93066,-0.13477
838706782,1.13508,0.68528,-0.30927,1.07031,0.71680,-0.27344
838711629,-0.27432,0.99634,0.37069,-0.32715,0.99707,0.35840
838716262,-1.23069,1.79282,0.65427,-1.29102,1.77344,0.60742
838721090,-0.16364,0.44749,0.18653,-0.20215,0.45313,0.18066
838725925,1.29105,0.25783,-0.68834,1.23730,0.29688,-0.64453
838730768,-0.02430,1.10670,0.27309,-0.08398,1.11230,0.26855
838735614,-1.12687,1.48436,0.07456,-1.17773,1.47363,0.03418
838740451,-0.60314,1.01763,0.22250,-0.65039,1.01465,0.20020
838745284,1.12644,0.30298,-0.47227,1.07324,0.33691,-0.43457
838750124,0.08881,0.89035,-0.37022,0.03613,0.90527,-0.36816
838754761,-0.85193,1.10849,0.64522,-0.89941,1.09668,0.61328
838759598,-0.61178,2.07456,0.66619,-0.69043,2.06445,0.63770
838764443,0.52450,0.46007,-0.15074,0.47559,0.48047,-0.13379
838769282,0.38568,0.15499,-0.15644,0.34766,0.17383,-0.14258
838774124,-0.72800,1.17242,0.41230,-0.77832,1.16504,0.38477
838778962,-1.53696,1.60745,-0.45762,-1.58203,1.59570,-0.50977
838783810,-0.04892,0.83280,0.06696,-0.09961,0.84082,0.06348
838788642,0.44549,0.30875,-0.85821,0.40527,0.33594,-0.84082
838793489,-0.31251,1.48693,0.25740,-0.37793,1.48730,0.24219
838798129,-1.03371,1.58027,0.74607,-1.09180,1.56348,0.70605
838802969,-0.61028,0.87193,0.22113,-0.65332,0.86914,0.19922
838807789,1.04553,0.45726,-0.88740,0.99121,0.49414,-0.85156
838812626,-0.20195,1.04255,-0.39267,-0.25391,1.05273,-0.40039
838817479,-1.22579,1.45659,0.34015,-1.27539,1.44141,0.29590
838822326,-1.44903,0.99965,0.19344,-1.48145,0.98340,0.14453
838827172,1.22584,0.57685,0.01952,1.16113,0.60645,0.05762
838832013,0.13491,0.76076,-0.34088,0.08496,0.77637,-0.33691
838836656,-0.83287,1.10453,0.49078,-0.87988,1.09473,0.45996
838841501,-0.55828,1.52529,0.35942,-0.62109,1.52051,0.33594
838846337,0.10694,0.74710,-0.29008,0.05762,0.76172,-0.28711
838851182,0.49674,0.36832,-0.88309,0.45410,0.39648,-0.86426
838856025,-0.38850,1.26197,0.24416,-0.44629,1.26172,0.22754
838860865,-1.26329,1.68816,0.25415,-1.31836,1.67285,0.20801
838865703,0.62618,1.23620,-0.34368,0.55469,1.25879,-0.32617
838870537,1.76793,0.32090,-0.83743,1.70508,0.36914,-0.77832
838875174,0.29544,0.97556,-0.23827,0.23633,0.99219,-0.23047
838880019,-0.66461,1.47422,0.00889,-0.72266,1.47168,-0.01660
838884861,0.51231,1.13076,0.40116,0.44238,1.14355,0.41309
838889697,0.47237,0.59918,-0.03484,0.41992,0.61719,-0.02051
838894540,-0.35070,0.35587,-0.41046,-0.38086,0.36523,-0.41992
838899390,-1.00922,1.24354,0.59396,-1.05762,1.22949,0.55664
838904235,-1.28833,1.39086,0.32226,-1.33496,1.37500,0.27637
838909077,0.63082,0.32049,-0.14099,0.58398,0.34277,-0.12012
838913918,1.69009,0.36743,-0.99152,1.62793,0.41602,-0.93457
838918551,-0.67126,1.15268,0.12335,-0.72070,1.14941,0.09863
838923396,-0.28867,1.70103,0.00772,-0.35938,1.70410,-0.00684
838928236,-0.02226,0.72046,0.30175,-0.07129,0.72656,0.29883
838933068,1.56988,0.25571,-0.29354,1.50977,0.29492,-0.24219
838937910,0.44947,0.66981,-0.05243,0.39551,0.68750,-0.03906
838942754,-0.94895,1.43988,0.38420,-1.00293,1.42871,0.34863
838947603,-0.91646,1.05515,0.32764,-0.95996,1.04590,0.29492
838952436,1.01665,0.57133,-0.52349,0.95801,0.60352,-0.49023
838957077,1.29224,0.90660,-0.77478,1.22070,0.94531,-0.73340
838961924,-1.29849,1.36211,0.45179,-1.34473,1.34473,0.40527
838966773,0.33771,1.53167,0.11938,0.26074,1.54395,0.12500
838971603,1.28582,0.46984,-0.10236,1.22363,0.50195,-0.06152
838976449,1.00361,0.49900,-0.53514,0.94727,0.53125,-0.50195
838981289,-1.36811,1.17831,-0.16990,-1.40527,1.16699,-0.21582
838986140,-0.70036,1.45007,0.16276,-0.75781,1.44531,0.13574
838990973,0.63264,1.09320,0.01018,0.56348,1.11230,0.02734
838995805,0.99159,0.30004,-0.40334,0.94043,0.33105,-0.37012
839000435,-0.36433,1.09601,-0.39708,-0.41504,1.10352,-0.41016
839005324,-1.33426,1.26570,0.61907,-1.37793,1.24609,0.57129
839010153,-0.33587,1.18299,0.07952,-0.39160,1.18555,0.06543
839014995,1.20165,0.24589,-0.39261,1.14844,0.28027,-0.35254
839019842,-0.22530,0.90777,-0.31510,-0.27344,0.91699,-0.32324
839024674,-1.15799,1.37111,0.49733,-1.20703,1.35547,0.45508
839029521,-0.52067,1.45950,0.30504,-0.58203,1.45605,0.28320
839034360,0.55538,0.32675,0.05052,0.50879,0.34570,0.06836
839038984,0.69491,0.30746,-0.16365,0.64746,0.33105,-0.14063
839043826,-0.76827,1.09498,0.34074,-0.81543,1.08789,0.31250
839048661,-1.00672,1.82857,0.31812,-1.07031,1.81641,0.27930
839053508,0.68768,0.65991,-0.24716,0.63086,0.68359,-0.22559
839058350,1.00151,0.42696,-0.32572,0.94629,0.45703,-0.29297
839063192,-0.79339,1.24788,-0.03011,-0.84277,1.24414,-0.05859
839068030,-0.95880,1.90704,0.31693,-1.02539,1.89551,0.27930
839072872,-0.19390,0.71115,0.18176,-0.23926,0.71582,0.17383
839077499,1.09073,0.22450,-0.18637,1.03906,0.25488,-0.15039
839082347,0.61911,0.92377,-0.37907,0.55664,0.94727,-0.36035
839087194,-1.19107,1.41114,0.61808,-1.24121,1.39355,0.57422
839092042,-0.62530,1.45891,0.45336,-0.68555,1.45215,0.42773
839096880,1.07366,0.54483,-0.26872,1.01367,0.57520,-0.23438
839101723,0.52654,0.92105,-0.40652,0.46582,0.94336,-0.39063
839106572,-1.10974,1.08686,0.43581,-1.15137,1.07324,0.39648
839111416,-0.85864,1.51701,0.32287,-0.91602,1.50781,0.29004
839116251,0.66717,0.45707,0.23074,0.61426,0.47559,0.25098
839120878,1.14911,0.42707,-0.63315,1.09277,0.46289,-0.59473
839125715,-0.23322,1.01811,0.09711,-0.28613,1.02246,0.08691
839130559,-0.51597,1.83186,0.53671,-0.58887,1.82520,0.51270
839135399,-0.05486,0.92801,0.35266,-0.10938,0.93262,0.34766
839140239,0.95917,0.44266,-0.56239,0.90527,0.47461,-0.53027
839145072,-0.33869,1.06044,-0.21288,-0.38965,1.06641,-0.22559
839149917,-0.75282,1.54818,0.46465,-0.81348,1.53906,0.43457
839154751,0.08952,1.21701,0.14943,0.02539,1.22559,0.14844
839159382,1.26420,0.63032,-0.40178,1.19922,0.66504,-0.36133
839164220,0.72273,0.80133,-0.41619,0.66211,0.82715,-0.39355
839169066,-1.02921,1.28931,0.27735,-1.07715,1.27832,0.24023
839173911,-0.63203,1.59398,0.09066,-0.69434,1.59082,0.06543
839178758,0.53111,0.55884,0.03170,0.47852,0.57715,0.04785
839183591,0.81739,0.46457,-0.64695,0.76563,0.49512,-0.61914
839188430,-0.50130,1.34652,0.02570,-0.55859,1.34668,0.00586
839193260,-0.74036,1.55380,0.54951,-0.80176,1.54395,0.51953
839198100,0.25058,0.80163,0.16411,0.19531,0.81348,0.16992
839202734,1.05303,0.34680,-0.50993,1.00000,0.37988,-0.47461
839207566,-0.03923,1.33138,-0.04978,-0.10352,1.33984,-0.05469
839212416,-1.49762,1.46917,0.55164,-1.54395,1.44727,0.49805
839217257,-0.80702,1.19975,0.55698,-0.85742,1.18945,0.52637
839222099,1.18764,0.55490,-0.16453,1.12500,0.58594,-0.12695
839226945,1.11051,0.58613,-0.28539,1.04883,0.61719,-0.25000
839231788,-1.21179,1.29703,0.26653,-1.25684,1.28320,0.22363
839236638,-0.75786,1.40360,0.47987,-0.81445,1.39453,0.45020
839241275,0.75093,0.60565,-0.19454,0.69434,0.62988,-0.17090
839246117,0.89233,0.44391,-0.63570,0.83984,0.47559,-0.60547
839250960,-1.13484,1.14106,0.25558,-1.17676,1.12891,0.21582
839255805,-1.04736,1.76626,0.28779,-1.10840,1.75391,0.24805
839260646,0.73646,0.76914,-0.03075,0.67480,0.79102,-0.00879
839265479,1.23534,0.27081,-0.56796,1.18164,0.30762,-0.52637
839270317,0.02239,1.18104,-0.19444,-0.03809,1.19238,-0.19629
839275169,-1.21886,1.35082,0.34242,-1.26563,1.33594,0.29883
839279810,-0.27606,1.13914,0.18422,-0.33203,1.14160,0.17188
839284645,0.98970,0.34600,-0.23065,0.93652,0.37500,-0.19824
839289490,0.24887,0.91940,-0.51920,0.19336,0.93848,-0.51172
839294337,-1.07721,1.27874,0.49144,-1.12500,1.26465,0.45215
839299180,-0.30929,1.47877,0.14263,-0.37402,1.48047,0.12793
839304018,0.87863,0.45826,-0.24037,0.82422,0.48535,-0.21191
839308856,0.96889,0.80732,-0.48962,0.90430,0.83789,-0.45898
839313702,-1.03728,1.20000,0.15280,-1.08203,1.19043,0.11621
839318547,-1.10611,1.84498,0.41932,-1.16895,1.83008,0.37695
839323181,0.54555,0.85520,0.04034,0.48438,0.87305,0.05566
839328014,1.21738,0.36553,-0.52388,1.16113,0.40137,-0.48340
839332845,-0.34867,1.20083,-0.00720,-0.40430,1.20410,-0.02148
839337696,-0.75453,1.64073,0.60324,-0.81836,1.62988,0.57227
839342524,0.33467,0.81191,0.24378,0.27734,0.82422,0.25195
839347363,1.14493,0.39922,-0.50283,1.08887,0.43359,-0.46484
839352198,0.09201,1.01107,-0.42173,0.03613,1.02637,-0.41992
839357046,-1.37147,1.46637,0.57114,-1.41992,1.44629,0.52148
839361688,-0.26823,1.64304,0.28115,-0.33887,1.64355,0.26660
839366528,0.81491,0.27003,-0.18820,0.76660,0.29590,-0.16113
839371361,0.56421,0.52848,-0.36725,0.51367,0.55176,-0.34863
839376204,-0.77785,1.27653,0.37415,-0.83008,1.26855,0.34473
839381047,-0.83150,1.62751,0.35579,-0.89258,1.61816,0.32324
839385887,0.58813,0.37146,-0.01793,0.54004,0.39160,0.00098
839390718,1.07816,0.73669,-0.70110,1.01465,0.77148,-0.66602
839395554,-0.59883,0.98179,0.08407,-0.64453,0.98047,0.06250
839400393,-0.87328,1.86803,0.36500,-0.94043,1.85742,0.33008
839405028,-0.17816,0.82715,0.07594,-0.22656,0.83301,0.06836
839409861,1.17798,0.40483,-0.47838,1.12109,0.43945,-0.43945
839414691,0.05750,1.01443,-0.16687,0.00098,1.02637,-0.16699
839419539,-1.04880,1.57412,0.52118,-1.10547,1.55957,0.48145
839424392,-0.83337,1.33385,0.25467,-0.88574,1.32617,0.22363
839429235,1.25365,0.48959,-0.31190,1.19238,0.52344,-0.27148
839434070,0.57266,0.78875,-0.35662,0.51465,0.81152,-0.33887
839438913,-1.17935,1.38309,0.30897,-1.22754,1.36914,0.26660
839443557,-1.24936,1.68293,0.51136,-1.30566,1.66504,0.46484
839448399,0.31568,0.75890,0.11092,0.26074,0.77246,0.11914
839453224,1.10401,0.37333,-0.60353,1.04980,0.40820,-0.56641
839458073,-0.32830,1.29313,-0.03783,-0.38672,1.29688,-0.05176
839462912,-0.92843,1.60796,0.57139,-0.98828,1.59473,0.53516
839467756,-0.04942,0.72741,0.18214,-0.09766,0.73438,0.17871
839472580,1.17854,0.35123,-0.45707,1.12305,0.38574,-0.41797
839477425,0.10243,1.09659,-0.19342,0.04297,1.10938,-0.19238
839482080,-1.12016,1.35108,0.42159,-1.16895,1.33691,0.38086
839486918,0.01873,1.17995,0.32396,-0.04395,1.18555,0.32031
839491754,0.98304,0.46289,-0.02224,0.92578,0.48926,0.00879
839496585,0.88030,0.61163,-0.61795,0.82324,0.64258,-0.58887
839501422,-0.97792,1.18760,0.17928,-1.02344,1.17871,0.14453
839506267,-0.83732,1.48069,0.43275,-0.89453,1.47070,0.40039
839511109,0.65067,0.59905,-0.14142,0.59570,0.62109,-0.12109
839515948,0.97329,0.36336,-0.45638,0.92090,0.39453,-0.42383
839520789,-1.01927,1.28965,0.05562,-1.06641,1.28125,0.01953
839525432,-0.50012,1.77668,0.43702,-0.57129,1.77148,0.41406
839530272,0.47219,0.77297,-0.07035,0.41504,0.79102,-0.05664
839535105,1.26652,0.30277,-0.46399,1.21094,0.33887,-0.42188
839539946,0.40314,1.27441,-0.48829,0.33496,1.29492,-0.47754
839544791,-1.05283,1.19137,0.50205,-1.09863,1.17773,0.46387
839549637,-0.39039,1.20325,0.41836,-0.44727,1.20117,0.40137
839554480,0.84064,0.45414,-0.04813,0.78613,0.47852,-0.02148
839559315,0.43200,0.94219,-0.58076,0.37305,0.96484,-0.56738
839563957,-1.27994,1.13340,0.50313,-1.32031,1.11621,0.45801
839568803,-0.70077,1.82538,0.56607,-0.77051,1.81543,0.53613
839573647,0.48025,0.21990,-0.07687,0.43848,0.23926,-0.06055
839578467,0.98867,0.59332,-0.69985,0.93066,0.62695,-0.66699
839583305,-0.65875,1.03314,0.12734,-0.70508,1.03027,0.10352
839588148,-1.11743,1.83144,0.41668,-1.17969,1.81641,0.37402
839592987,0.20247,0.64363,-0.03686,0.15332,0.65723,-0.03125
839597823,1.36606,0.29444,-0.36333,1.30859,0.33105,-0.31836
839602668,-0.35234,1.03335,-0.20472,-0.40234,1.03906,-0.21777
839607308,-0.88244,1.53252,0.45204,-0.94043,1.52148,0.41797
839612147,-0.09402,1.03965,0.21329,-0.15039,1.04492,0.20703
839616991,1.06031,0.28070,-0.45949,1.00879,0.31348,-0.42383
839621837,0.35950,1.21530,-0.32158,0.29297,1.23340,-0.31250
839626675,-1.14750,1.28217,0.52209,-1.19434,1.26660,0.48047
839631524,-0.71161,1.32741,0.20375,-0.76563,1.32227,0.17676
839636369,0.80673,0.44791,-0.04120,0.75293,0.47168,-0.01563
839641209,1.01448,0.60889,-0.58107,0.95508,0.64160,-0.54785
839645839,-0.77486,1.13525,0.16673,-0.82227,1.12988,0.13867
839650681,-1.37651,1.81010,0.58745,-1.43457,1.78906,0.53613
839655520,0.12394,0.57469,0.16325,0.07715,0.58496,0.16602
839660358,1.29314,0.50539,-0.68539,1.23242,0.54395,-0.64258
839665207,-0.46049,1.11249,-0.01872,-0.51172,1.11426,-0.03613
839670049,-1.00002,1.75565,0.28233,-1.06152,1.74414,0.24414
839674895,-0.31324,0.64494,0.12550,-0.35449,0.64844,0.11426
839679732,0.99164,0.51232,-0.40930,0.93457,0.54297,-0.37695
839684359,0.36450,0.80750,-0.38128,0.30957,0.82715,-0.37012
839689199,-1.02847,1.48665,0.51625,-1.08301,1.47266,0.47754
839694047,-0.68276,1.65992,0.31790,-0.74707,1.65332,0.29004
839698888,1.08426,0.50917,-0.11441,1.02441,0.53809,-0.08008
839703717,1.01895,0.58665,-0.54996,0.95996,0.61914,-0.51660
839708567,-1.04110,1.28863,0.28655,-1.08887,1.27734,0.24902
839713411,-0.85595,1.53870,0.34149,-0.91406,1.52930,0.30859
839718255,0.81820,0.73477,-0.18927,0.75684,0.75977,-0.16406
839723087,0.89583,0.40434,-0.49196,0.84375,0.43457,-0.46191
839727724,0.40680,1.23064,-0.28089,0.33887,1.24902,-0.27051
839732571,-1.13167,1.45506,0.51743,-1.18359,1.43945,0.47559
839737421,-0.13319,0.89202,0.16786,-0.18457,0.89746,0.16113
839742248,1.16552,0.33930,-0.40478,1.11035,0.37305,-0.36621
839747092,-0.11006,0.89419,-0.22378,-0.16016,0.90430,-0.22852
839751937,-1.21874,1.49874,0.53507,-1.27051,1.48145,0.49023
839756776,0.10610,1.22290,0.26454,0.04102,1.23047,0.26367
839761613,1.07831,0.40916,-0.14110,1.02148,0.43848,-0.10645
839766252,1.14008,0.68119,-0.49559,1.07617,0.71484,-0.45898
839771096,-1.02950,1.27082,0.10779,-1.07617,1.26172,0.07129
839775937,-0.92717,1.63508,0.45879,-0.98730,1.62305,0.42285
839780765,0.52952,0.82359,-0.01023,0.46973,0.84180,0.00488
839785594,1.19563,0.31581,-0.62726,1.14160,0.35254,-0.58691
839790437,-0.58675,1.40948,-0.15845,-0.64355,1.41016,-0.18066
839795288,-0.84614,1.66810,0.37700,-0.90820,1.65820,0.34375
839800125,0.25331,1.02094,-0.17697,0.19336,1.03613,-0.17090
839804757,1.38563,0.17644,-0.56530,1.33203,0.21582,-0.51855
839809597,-0.19664,1.24078,-0.24503,-0.25488,1.24902,-0.25391
839814437,-1.35807,1.32235,0.48584,-1.40234,1.30371,0.43750
839819282,-0.50537,1.72766,0.24201,-0.57422,1.72461,0.21973
839824121,0.80009,0.43867,0.08732,0.74609,0.46094,0.11230
839828962,1.06818,0.71384,-0.56861,1.00488,0.74707,-0.53418
839833803,-1.08893,1.00827,0.26042,-1.12793,0.99707,0.22266
839838645,-0.39817,1.70849,0.34728,-0.46875,1.70605,0.32813
839843487,0.60166,0.39919,-0.05645,0.55273,0.41992,-0.03711
839848116,1.09911,0.49607,-0.48332,1.04102,0.52930,-0.44727
839852946,-0.87843,1.15675,0.18970,-0.92480,1.14941,0.15820
839857795,-0.82365,1.77850,0.48355,-0.88965,1.76758,0.45020
839862636,-0.32840,0.90791,0.16923,-0.37695,0.91016,0.15625
839867474,1.35085,0.22447,-0.43075,1.29590,0.26172,-0.38574
839872305,0.19098,1.12215,-0.31957,0.12988,1.13770,-0.31543
839877150,-1.26449,1.41016,0.42152,-1.31250,1.39355,0.37598
839881997,-0.25944,1.50633,0.23032,-0.32617,1.50781,0.21680
839886628,0.95209,0.27188,-0.17491,0.90137,0.29980,-0.14355
839891464,0.54997,1.01348,-0.42058,0.48633,1.03613,-0.40430
839896309,-1.01903,1.19826,0.46573,-1.06543,1.18555,0.42871
839901148,-0.77143,1.72965,0.47777,-0.83691,1.71973,0.44629
839905992,0.85917,0.28207,0.08184,0.80859,0.30566,0.10938
839910825,1.36374,0.63161,-0.58324,1.29785,0.66992,-0.53906
839915672,-0.44760,1.07839,0.19235,-0.49902,1.07813,0.17480
839920512,-1.00294,1.88201,0.37897,-1.06836,1.86914,0.33984
839925359,0.27134,0.73617,0.11419,0.21777,0.74902,0.12109
839932110,0.77955,0.52205,-0.36922,0.72559,0.54883,-0.34375
839936959,-0.92325,1.18912,0.39799,-0.97070,1.17871,0.36426
839941802,-1.38610,1.56872,0.42410,-1.43652,1.54980,0.37402
839946639,0.22212,0.79874,0.03764,0.16797,0.81152,0.04297
839951460,1.21714,0.51862,-0.66235,1.15723,0.55566,-0.62207
839956305,-0.06777,1.03844,-0.12458,-0.12305,1.04785,-0.12891
839961148,-1.04732,1.59627,0.49086,-1.10449,1.58203,0.45117
839965992,-0.28450,0.69373,0.24432,-0.32813,0.69629,0.23340
839970621,1.34735,0.44188,-0.59725,1.28711,0.48047,-0.55273
839975466,-0.00947,0.82930,-0.19296,-0.05957,0.84082,-0.19434
839980313,-1.21852,1.48234,0.46837,-1.26953,1.46582,0.42383
839985155,-0.66882,1.16417,0.37119,-0.71973,1.15820,0.34570
839989995,0.83657,0.49925,-0.13402,0.78125,0.52441,-0.10742
839994835,0.74117,0.50836,-0.42488,0.68848,0.53516,-0.40039
839999671,-0.99755,1.24193,0.10861,-1.04395,1.23340,0.07324
840004565,-0.89069,1.69884,0.43733,-0.95313,1.68750,0.40234
840009198,0.58428,0.83313,-0.04132,0.52344,0.85254,-0.02441
840014027,0.94538,0.40382,-0.73357,0.89355,0.43750,-0.70117
840018866,-0.42172,1.26651,-0.10355,-0.47754,1.26953,-0.12012
840023714,-1.11645,1.68600,0.45130,-1.17480,1.67090,0.40918
840028545,0.35924,0.94127,0.02997,0.29883,0.95605,0.03906
840033378,1.32766,0.25923,-0.50726,1.27246,0.29688,-0.46289
840038211,0.45817,1.22831,-0.32858,0.38965,1.24805,-0.31641
840043053,-1.34769,1.29350,0.54711,-1.39160,1.27441,0.49902
840047888,-0.24291,1.58985,0.28600,-0.31250,1.59082,0.27246
840052528,0.91435,0.60164,-0.05278,0.85449,0.62695,-0.02441
840057367,1.32249,0.69822,-0.45918,1.25488,0.73438,-0.41699
840062212,-1.21104,0.92477,0.14049,-1.24512,0.91309,0.09961
840067060,-0.51284,1.49798,0.25597,-0.57520,1.49512,0.23438
840071903,0.45343,0.65372,-0.17509,0.40039,0.67285,-0.16113
840076735,0.53262,0.21987,-0.35874,0.49121,0.24316,-0.33984
840081579,-1.07867,1.03223,-0.03765,-1.11719,1.02441,-0.07422
840086424,-0.81096,1.59677,0.25997,-0.87109,1.58887,0.22852
840091055,0.42403,1.68244,-0.19232,0.34277,1.69922,-0.18359
840095900,1.79362,0.30968,-0.57475,1.72949,0.35547,-0.51563
840100745,1.61377,1.31717,-0.78520,1.52539,1.36035,-0.73535
840105589,-1.10951,1.28306,0.56988,-1.15723,1.26758,0.52930
840110434,-0.25477,1.46083,-0.42938,-0.31738,1.46973,-0.44043
840115280,0.94537,0.16966,-0.13692,0.89746,0.19727,-0.10547
840120120,0.17781,1.07056,-0.49180,0.11914,1.08789,-0.48730
840124957,-1.13731,1.13585,0.40064,-1.17969,1.12207,0.36035
840129796,-1.08984,1.40531,0.41498,-1.14063,1.39160,0.37500
840134426,0.01499,0.38458,-0.11039,-0.02344,0.39648,-0.10938
840139266,1.15328,0.75802,-0.69751,1.08789,0.79395,-0.66016
840144103,0.31068,1.13291,-0.05487,0.24609,1.14746,-0.04785
840148946,-0.85097,1.81294,0.81670,-0.91895,1.79785,0.78125
840153787,0.41088,0.53901,0.36561,0.35938,0.55176,0.37695
840158623,1.52944,0.40694,-0.30435,1.46582,0.44531,-0.25488
840163469,0.02480,0.97441,-0.11701,-0.03027,0.98535,-0.11816
840168318,-1.18157,1.76296,0.50269,-1.24121,1.74609,0.45801
840172946,0.59363,1.47859,-0.06141,0.51465,1.49707,-0.04688
840177770,1.22438,0.43773,-0.08781,1.16406,0.46875,-0.04883
840182614,-0.23223,0.45627,-0.98400,-0.26465,0.47363,-0.98828
840187459,-0.56676,1.11228,-0.01535,-0.61621,1.11230,-0.03613
840192302,-0.59994,1.53566,0.08450,-0.66113,1.53320,0.06055
840197144,0.30184,0.39306,0.01379,0.25781,0.40820,0.02344
840201983,0.63175,0.44882,-0.30507,0.58203,0.47266,-0.28418
840206823,-0.59916,1.12735,-0.02699,-0.64844,1.12695,-0.04883
840211460,-1.29369,1.77637,0.22218,-1.35059,1.76074,0.17480
840216308,0.55868,0.55377,-0.21119,0.50684,0.57520,-0.19336
840221151,1.48385,0.55878,-0.80095,1.41895,0.60156,-0.75195
840225994,0.33732,1.12531,-0.70728,0.27539,1.14746,-0.69727
840230835,-1.32707,1.56289,0.33696,-1.37793,1.54590,0.28906
840235678,-0.05541,1.14348,0.19095,-0.11523,1.14941,0.18555
840240517,1.74138,0.60766,-0.60513,1.66992,0.65234,-0.54883
840245363,0.80287,1.01566,-0.29536,0.73438,1.04102,-0.27148
840250199,-1.09467,1.48301,0.17640,-1.14648,1.47168,0.13672
840254825,-0.13317,1.60441,0.08075,-0.20410,1.60938,0.07129
840259662,0.51882,0.64597,-0.16152,0.46484,0.66602,-0.14551
840264496,0.65358,0.88008,-0.83103,0.59375,0.90918,-0.80957
840269334,-0.81393,1.12362,0.38640,-0.86133,1.11523,0.35645
840274184,-1.86275,1.66987,0.47003,-1.90820,1.64258,0.40430
840279034,-0.01302,0.92635,-0.27179,-0.06543,0.93848,-0.27344
840283878,1.17804,0.29524,-0.65520,1.12500,0.33203,-0.61523
840288723,-0.19679,1.09595,-0.24565,-0.25098,1.10449,-0.25391
840293368,-1.16306,1.28817,0.77833,-1.21094,1.26953,0.73535
840298212,-0.54644,0.95249,0.43303,-0.59375,0.94824,0.41211
840303052,1.08519,0.24934,-0.24977,1.03320,0.28027,-0.21387
840307887,-0.79181,0.63290,0.01915,-0.82422,0.62988,-0.00684
840312730,-1.45343,1.39557,0.24131,-1.49707,1.37793,0.19043
840317575,0.83113,1.76698,-0.09319,0.74023,1.78906,-0.07227
840322406,0.01186,0.34312,0.11879,-0.02637,0.35254,0.11914
840327239,1.29904,0.37529,-0.31677,1.24023,0.41016,-0.27441
840331885,-0.93463,1.03280,0.40357,-0.97754,1.02246,0.37012
840336733,-0.55473,1.54574,0.35548,-0.61816,1.54102,0.33203
840341579,0.09720,0.83910,0.05353,0.04395,0.84961,0.05469
840346409,1.48013,0.23526,-0.68366,1.42383,0.27734,-0.63379
840351254,-2.31456,1.08491,0.00279,-2.33398,1.05664,-0.07324
840356089,-0.98423,1.70031,0.16696,-1.04395,1.69043,0.12988
840360932,-0.91459,1.06724,0.00530,-0.95703,1.06152,-0.02637
840365774,1.16342,0.36008,-0.11952,1.10645,0.39063,-0.08203
840370613,0.95861,1.41797,-0.67775,0.87793,1.44922,-0.64941
840375252,-1.59770,1.19780,0.55366,-1.63477,1.17480,0.49805
840380104,-0.88077,2.10877,0.26730,-0.95410,2.09863,0.23145
840384943,0.43192,0.35490,0.02713,0.38672,0.37207,0.04102
840389775,1.18657,0.41440,-0.39631,1.12891,0.44824,-0.35742
840394615,-1.23838,0.90064,0.39795,-1.27246,0.88574,0.35547
840399457,-0.99967,1.81818,0.18461,-1.06250,1.80762,0.14648
840404298,0.75998,0.71870,-0.22276,0.70020,0.74316,-0.19922
840409132,1.67358,0.62407,-0.54706,1.60254,0.66699,-0.49316
840413767,0.90068,1.29140,-0.17090,0.82227,1.31641,-0.14551
840418612,-0.89634,1.45772,0.92636,-0.95410,1.44141,0.89063
840423451,0.36632,0.89941,-0.11740,0.30762,0.91602,-0.10742
840428293,1.21890,0.33696,-0.00479,1.16113,0.36719,0.03418
840433130,-1.65904,1.37264,-0.27741,-1.69629,1.35742,-0.33301
840437971,-1.13842,1.26907,0.85682,-1.18652,1.25000,0.81445
840442809,0.00089,1.41162,0.63217,-0.06934,1.41309,0.62598
840447639,0.43488,0.43985,-0.07450,0.38770,0.45801,-0.06055
840452472,0.71304,0.48567,-0.57202,0.66211,0.51367,-0.54785
840457116,-0.10794,1.09564,-0.14363,-0.16406,1.10449,-0.14941
840461958,0.16671,1.83923,0.78548,0.08105,1.84082,0.78223
840466794,0.55810,0.26891,0.57925,0.51074,0.28223,0.59570
840471630,1.22094,0.55886,-0.73480,1.16016,0.59668,-0.69434
840476464,-0.28077,0.87555,0.14406,-0.32910,0.87891,0.13281
840481290,-1.17565,1.85881,0.32851,-1.23730,1.84375,0.28418
840486135,0.38074,0.59450,-0.06134,0.33008,0.61133,-0.04980
840490973,1.29032,0.26712,-0.46685,1.23535,0.30371,-0.42383
840495612,0.50103,0.94093,-0.68289,0.44141,0.96582,-0.66699
840500438,-1.14424,1.25352,0.32396,-1.18945,1.24023,0.28320
840505280,0.22845,1.49306,0.36272,0.15332,1.50098,0.36426
840510121,0.87229,0.38433,-0.29926,0.82031,0.41211,-0.27051
840514958,0.46023,0.58380,-0.20598,0.40918,0.60352,-0.19141
840519800,-1.26109,1.03935,0.43159,-1.29883,1.02344,0.38770
840524641,-0.68614,1.70297,-0.04334,-0.75000,1.70020,-0.07031
840529477,1.30142,0.83887,-0.51376,1.23047,0.87500,-0.47266
840534117,1.39632,0.50540,-0.71120,1.33398,0.54590,-0.66504
840538956,-1.11345,1.27828,-0.49402,-1.15625,1.27441,-0.53125
840543805,-0.37301,1.31430,0.48785,-0.43359,1.31152,0.47070
840548639,-0.20725,0.74926,-0.37611,-0.25098,0.75977,-0.38281
840553481,1.58202,0.14451,-0.42177,1.52539,0.18555,-0.36914
840558314,0.86683,1.37452,-0.49279,0.78809,1.40234,-0.46777
840563165,-1.33615,1.28607,0.51144,-1.37988,1.26758,0.46387
840568012,-0.29486,1.25802,0.11086,-0.35352,1.26074,0.09766
840572855,1.09580,0.41620,0.16895,1.03711,0.44238,0.20313
840577486,0.96403,0.93473,-0.38899,0.89551,0.96387,-0.35938
840582335,-2.30076,1.28058,0.28633,-2.32715,1.24902,0.20898
840587176,-0.50635,1.77292,0.61944,-0.57813,1.76563,0.59570
840592011,0.49201,0.39587,-0.34201,0.44629,0.41797,-0.32520
840596849,1.24179,0.48764,-0.50650,1.18164,0.52344,-0.46582
840601694,-0.36679,1.34638,0.12136,-0.42676,1.34766,0.10547
840606539,-1.29943,1.53738,0.46040,-1.35059,1.51953,0.41309
840611382,0.40983,1.07573,-0.39334,0.34668,1.09570,-0.38184
840616015,1.55302,0.27983,-0.43889,1.49316,0.32031,-0.38770
840620837,-0.44366,1.05537,0.32929,-0.49512,1.05371,0.31152
840625651,-1.81204,1.43744,0.40767,-1.85156,1.41211,0.34473
840630471,0.16149,1.55757,0.52482,0.08496,1.56250,0.52344
840635290,0.85018,0.09918,0.34392,0.80371,0.12012,0.37109
840640112,-0.62231,0.69137,-1.08917,-0.65430,0.70313,-1.10645
840644934,-0.54529,1.27838,0.17181,-0.60059,1.27637,0.15039
840649755,-0.06331,1.94288,0.44150,-0.14648,1.94434,0.43164
840654576,0.20832,0.18515,0.19027,0.17090,0.19727,0.19727
840659207,1.24518,0.41627,-0.40698,1.18652,0.45117,-0.36621
840664045,-0.55393,1.44566,0.06502,-0.61328,1.44434,0.04297
840668895,-0.37045,1.84090,0.59386,-0.44629,1.83594,0.57422
840673737,-1.40568,0.79241,0.54291,-1.43457,0.77344,0.49512
840678583,0.69552,0.39390,-0.13293,0.64551,0.41699,-0.11035
840683419,-1.23428,1.15335,-0.73075,-1.27051,1.15039,-0.77051
840688268,-1.17603,1.39292,0.76351,-1.22656,1.37402,0.71973
840693108,0.22241,1.14914,0.31246,0.15723,1.15820,0.31543
840697740,1.19332,0.33380,-0.15193,1.13672,0.36523,-0.11328
840702572,0.16855,0.74302,-0.03634,0.11719,0.75586,-0.03223
840707410,-1.34005,1.06731,0.36662,-1.37695,1.05078,0.32031
840712263,-1.56192,1.39483,0.63762,-1.60547,1.37109,0.58203
840717104,-0.05422,0.31319,-0.03012,-0.08984,0.32324,-0.03125
840721935,0.76606,0.65312,-1.10598,0.71191,0.68750,-1.07910
840726785,-0.26455,1.48281,-0.31435,-0.32813,1.49023,-0.32617
840731627,-1.16036,1.67382,0.70346,-1.21875,1.65527,0.65918
840736269,0.40169,0.88741,0.53394,0.33984,0.89746,0.54297
840741095,1.26539,0.35183,-0.36381,1.20801,0.38672,-0.32227
840745941,0.40782,1.08665,-0.02582,0.34277,1.10254,-0.01563
840750789,-1.48249,1.74744,0.60721,-1.53711,1.72461,0.55273
840755637,-0.00837,1.14865,0.01803,-0.06836,1.15723,0.01465
840760472,1.22720,0.38382,-0.00289,1.16797,0.41406,0.03613
840765306,0.53648,0.75771,-0.47415,0.48047,0.78125,-0.45703
840770148,-1.64356,1.30377,0.06766,-1.68066,1.28516,0.01172
840774986,-1.78545,1.78947,0.33582,-1.83496,1.76465,0.27246
840779624,0.74017,0.84251,0.32901,0.67480,0.86035,0.34961
840784450,0.94803,0.33576,-0.15589,0.89551,0.36328,-0.12500
840789293,-0.88215,1.09156,0.21796,-0.92676,1.08398,0.18652
840794136,-0.51810,1.61301,0.56524,-0.58496,1.60645,0.54199
840798977,0.39958,0.83321,0.40739,0.33984,0.84473,0.41699
840803806,0.70526,0.53188,-0.38543,0.65234,0.55762,-0.36230
840808642,0.39057,1.40841,-0.15617,0.31738,1.42480,-0.14746
840813486,-1.60069,1.59654,0.23704,-1.64746,1.57617,0.18066
840818125,-2.25409,1.31958,0.69847,-2.28418,1.28418,0.62109
840822968,0.22820,0.65718,0.07603,0.17773,0.66992,0.08203
840827808,0.94156,0.64926,-0.48747,0.88184,0.67969,-0.45703
840832643,-1.47942,0.96212,0.74094,-1.51270,0.93945,0.68945
840837490,-1.69691,1.55161,0.54852,-1.74219,1.52637,0.48828
840842332,0.04290,0.73736,-0.11272,-0.00586,0.74902,-0.11230
840847171,0.97606,0.52333,-0.40974,0.91895,0.55371,-0.37793
840852015,-0.68655,1.50589,0.00874,-0.74512,1.50293,-0.01758
840856853,0.24368,1.75417,0.54950,0.16016,1.75977,0.54980
840861484,0.37872,1.28893,0.17289,0.30762,1.30176,0.18066
840866319,1.41729,-0.00038,-0.13597,1.36621,0.03516,-0.08887
840871154,-1.20982,0.84528,0.03235,-1.24121,0.83496,-0.00781
840876003,-0.44732,1.64048,0.23000,-0.51465,1.63867,0.20996
840880843,-0.42293,1.33689,0.06530,-0.48145,1.33789,0.04785
840885683,0.91062,0.29687,-0.27636,0.86035,0.32520,-0.24609
840890524,0.07740,0.74813,-0.23917,0.02832,0.76172,-0.23730
840895370,-0.75822,1.35935,0.45912,-0.81348,1.35059,0.42969
840900004,-0.94018,1.71874,0.12743,-1.00098,1.70996,0.09180
840904854,-0.32029,0.47107,0.32191,-0.35742,0.47266,0.31055
840909690,0.88540,0.26210,-0.80575,0.83887,0.29590,-0.77441
840914534,0.26349,1.81239,-0.71279,0.18359,1.83203,-0.70801
840919377,-0.27239,1.97326,0.13866,-0.35156,1.97461,0.12305
840924214,0.47322,0.95089,-0.08432,0.41113,0.96875,-0.07129
840929048,1.39415,0.33539,-0.78044,1.33691,0.37695,-0.73340
840933887,-0.15327,1.39995,-1.54585,-0.21094,1.42285,-1.54980
840938527,-0.27328,1.51493,0.19161,-0.33984,1.51660,0.17773
840943371,-0.32371,1.09239,0.04543,-0.37695,1.09570,0.03223
840948202,1.01067,0.29793,-0.12277,0.95801,0.32617,-0.08984
840953042,0.71699,0.54677,-0.08202,0.66211,0.56934,-0.05957
840957885,-0.95162,1.31262,0.37492,-1.00195,1.30176,0.33984
840962733,-0.17742,1.61524,0.11061,-0.24805,1.61914,0.09961
840967572,-0.44629,0.34624,-0.18115,-0.47559,0.35156,-0.19434
840972417,1.63402,0.48467,-0.28971,1.56641,0.52441,-0.23730
840977249,-0.16675,0.94279,0.99800,-0.22266,0.93848,0.98730
840981882,-1.31365,1.97300,0.72233,-1.37793,1.95117,0.67188
840986722,0.08991,0.68115,0.09522,0.04102,0.69141,0.09668
840991556,1.09860,0.32250,-0.16171,1.04395,0.35254,-0.12598
840996393,0.35365,1.31991,-0.51690,0.28516,1.33984,-0.50781
841001283,-1.56888,1.39862,0.17150,-1.61035,1.37988,0.11719
841006123,-0.23523,1.55666,0.21605,-0.30371,1.55859,0.20313
841010966,1.28887,0.69589,-0.63154,1.22266,0.73340,-0.58984
841015803,0.88468,1.19585,-0.25212,0.80957,1.22168,-0.22656
841020448,-1.84308,1.17852,0.66522,-1.87598,1.15039,0.60156
841025288,-1.18964,1.45280,0.67210,-1.24121,1.43457,0.62793
841030131,-0.67967,0.99995,0.10435,-0.72461,0.99707,0.08008
841034960,0.72100,0.55007,-0.75522,0.66895,0.58008,-0.73047
841039805,-0.87473,1.25484,-0.05003,-0.92285,1.25000,-0.08105
841044641,-0.71017,1.75175,0.70909,-0.77832,1.74023,0.67871
841049478,0.24156,1.10378,0.22055,0.17773,1.11426,0.22461
841054307,1.19973,0.31922,-0.40007,1.14453,0.35352,-0.36035
841059150,-0.55698,1.12778,0.07356,-0.60742,1.12695,0.05273
841063778,-1.46375,1.26999,0.72999,-1.50586,1.24707,0.67773
841068621,-0.21332,1.39965,0.11868,-0.27734,1.40332,0.10742
841073454,1.18531,0.25603,-0.11674,1.13086,0.28711,-0.07813
841078294,1.21298,1.20859,-0.21350,1.13184,1.23926,-0.17773
841083134,-1.19029,0.99683,0.76228,-1.22949,0.97852,0.71973
841087981,0.28863,1.19128,0.41537,0.22070,1.20020,0.41992
841092815,0.43689,0.46730,0.19988,0.38770,0.48242,0.21289
841097654,1.04498,0.35584,-0.58997,0.99219,0.38965,-0.55469
841102290,-0.74091,1.63215,-0.06835,-0.80176,1.62891,-0.09668
841107133,-0.59613,1.60061,0.30118,-0.66016,1.59570,0.27637
841111970,-0.12226,0.57782,-0.26981,-0.16309,0.58887,-0.27344
841116800,1.00318,0.30923,-0.97486,0.95410,0.34668,-0.93945
841121633,0.52912,1.22370,-0.64339,0.46094,1.24805,-0.62793
841126480,-0.65927,1.36707,0.32766,-0.71582,1.36133,0.30176
841131321,0.19156,1.50935,-0.43453,0.12012,1.52539,-0.43164
841136164,1.48347,0.39831,-0.53317,1.42188,0.43848,-0.48438
841140795,1.10503,0.56765,-0.28334,1.04395,0.59863,-0.24805
841145642,-0.39446,1.31780,0.77463,-0.45605,1.31152,0.75586
841150490,-0.33511,1.77406,0.26228,-0.40820,1.77344,0.24512
841155330,0.53536,0.04502,0.47419,0.49512,0.05957,0.49121
841160163,0.56612,0.50400,-0.00981,0.51465,0.52344,0.00781
841165003,-1.40363,1.36087,0.27289,-1.44727,1.34375,0.22363
841169846,-1.51534,1.72626,0.94617,-1.57031,1.69922,0.88965
841174682,0.51490,0.63283,0.59589,0.45801,0.64453,0.60938
841179520,0.73140,0.48327,-0.22873,0.67871,0.50781,-0.20508
841184148,0.61817,1.14885,-0.46822,0.54980,1.17285,-0.45020
841188990,-1.10711,1.60862,0.36936,-1.16309,1.59473,0.32813
841193833,-0.77278,1.31647,0.36534,-0.82617,1.30859,0.33594
841198679,0.86474,0.32775,-0.29437,0.81445,0.35547,-0.26563
841203512,0.69732,0.44243,-0.70104,0.64844,0.47168,-0.67676
841208359,-0.84024,1.18372,0.11807,-0.88770,1.17773,0.08789
841213193,-1.36242,1.73409,-0.87607,-1.41211,1.72949,-0.92188
841218041,1.15557,0.03036,-0.66051,1.11035,0.06738,-0.62012
841222679,1.29229,0.60856,-0.20289,1.22656,0.64160,-0.16211
841227526,0.31364,1.18947,0.46552,0.24512,1.19824,0.47070
841232359,-1.24658,1.94989,0.76615,-1.31152,1.92871,0.71777
841237207,-0.02464,1.00904,-0.06533,-0.08008,1.01855,-0.06836
841242047,1.41592,0.13092,-0.38814,1.36230,0.16895,-0.34082
841246886,-1.08527,1.16115,0.10811,-1.12793,1.15137,0.07031
841251728,-1.08640,1.42829,0.37381,-1.13770,1.41504,0.33398
841256572,-0.17800,1.06250,0.38849,-0.23438,1.06445,0.37891
841261412,0.99229,0.16856,-0.07865,0.94336,0.19629,-0.04590
841266041,-0.10506,0.54943,0.19980,-0.14746,0.55566,0.19531
841270867,-0.55556,1.71169,-0.21596,-0.62109,1.71289,-0.23828
841275714,-0.41924,1.70742,0.30777,-0.48926,1.70508,0.28809
841280549,1.12786,1.26270,-0.48980,1.04785,1.29492,-0.45605
841285390,2.47207,0.09342,-0.73633,2.40332,0.15234,-0.65430
841290232,-0.70830,0.57787,-0.05721,-0.74023,0.57715,-0.08008
841295081,-0.26546,1.74862,0.00914,-0.33789,1.75195,-0.00488
841299925,0.70743,0.99268,-0.39040,0.64160,1.01758,-0.36914
841304553,1.65382,0.18110,-0.37001,1.59473,0.22266,-0.31543
